,Unnamed: 0,block,browser,color,cookies,correct,cpt_response,current_time,inter_stimulus_interval_index,inter_stimulus_interval_time,is_fullscreen,key_press,mobile,os,response,responses,rt,shape,stimulus,stimulus_block,stimulus_side,sub_block,subject,tags1,tags2,time_elapsed,time_post_trial,trial_began,trial_index,trial_type,type,stimulus_missed,is_cpt_stimulus
42318,89.0,,,#FF0000,,,0.0,1.7200000286102295,,,,,,,,,,square,,,,,,,,376726.0,,,15.0,conjunctive-cpt,jspsych-conjunctive-cpt,,True
42320,91.0,,,#FFFF00,,1.0,1.0,1.9539999961853027,,,,,,,32.0,,,triangle,,,,,,,,376960.0,,,15.0,conjunctive-cpt,,,False
42326,97.0,,,#FF0000,,,0.0,6.569000005722046,,,,,,,,,,square,,,,,,,,381575.0,,,15.0,conjunctive-cpt,jspsych-conjunctive-cpt,,True
42328,99.0,,,#FFFF00,,1.0,1.0,6.898000001907349,,,,,,,32.0,,,triangle,,,,,,,,381904.0,,,15.0,conjunctive-cpt,,,False
42332,103.0,,,#FF0000,,,0.0,9.287000179290771,,,,,,,,,,square,,,,,,,,384293.0,,,15.0,conjunctive-cpt,jspsych-conjunctive-cpt,,True
42334,105.0,,,#FFFF00,,1.0,1.0,9.537000179290771,,,,,,,32.0,,,triangle,,,,,,,,384543.0,,,15.0,conjunctive-cpt,,,False
42338,109.0,,,#FF0000,,,0.0,13.504000186920166,,,,,,,,,,square,,,,,,,,388510.0,,,15.0,conjunctive-cpt,jspsych-conjunctive-cpt,,True
42340,111.0,,,#FFFF00,,1.0,1.0,13.76200008392334,,,,,,,32.0,,,triangle,,,,,,,,388768.0,,,15.0,conjunctive-cpt,,,False
42358,129.0,,,#FF0000,,,0.0,31.00500011444092,,,,,,,,,,square,,,,,,,,406011.0,,,15.0,conjunctive-cpt,jspsych-conjunctive-cpt,,True
42360,131.0,,,#FFFF00,,1.0,1.0,31.170000076293945,,,,,,,32.0,,,triangle,,,,,,,,406176.0,,,15.0,conjunctive-cpt,,,False
42364,135.0,,,#FF0000,,,0.0,33.73100018501282,,,,,,,,,,square,,,,,,,,408737.0,,,15.0,conjunctive-cpt,jspsych-conjunctive-cpt,,True
42366,137.0,,,#FFFF00,,1.0,1.0,34.11300015449524,,,,,,,32.0,,,triangle,,,,,,,,409119.0,,,15.0,conjunctive-cpt,,,False
42372,143.0,,,#FF0000,,,0.0,39.56500005722046,,,,,,,,,,square,,,,,,,,414571.0,,,15.0,conjunctive-cpt,jspsych-conjunctive-cpt,,True
42374,145.0,,,#FFFF00,,1.0,1.0,39.85700011253357,,,,,,,32.0,,,triangle,,,,,,,,414863.0,,,15.0,conjunctive-cpt,,,False
42376,147.0,,,#FF0000,,,0.0,41.687999963760376,,,,,,,,,,square,,,,,,,,416694.0,,,15.0,conjunctive-cpt,jspsych-conjunctive-cpt,,True
42378,149.0,,,#FFFF00,,1.0,1.0,42.08200001716614,,,,,,,32.0,,,triangle,,,,,,,,417088.0,,,15.0,conjunctive-cpt,,,False
42384,155.0,,,#FF0000,,,0.0,48.02300000190735,,,,,,,,,,square,,,,,,,,423029.0,,,15.0,conjunctive-cpt,jspsych-conjunctive-cpt,,True
42386,157.0,,,#FFFF00,,1.0,1.0,48.27300000190735,,,,,,,32.0,,,triangle,,,,,,,,423279.0,,,15.0,conjunctive-cpt,,,False
42392,163.0,,,#FF0000,,,0.0,52.36600017547608,,,,,,,,,,square,,,,,,,,427372.0,,,15.0,conjunctive-cpt,jspsych-conjunctive-cpt,,True
42394,165.0,,,#FFFF00,,1.0,1.0,52.64199995994568,,,,,,,32.0,,,triangle,,,,,,,,427648.0,,,15.0,conjunctive-cpt,,,False
42398,169.0,,,#FF0000,,,0.0,56.08300018310547,,,,,,,,,,square,,,,,,,,431089.0,,,15.0,conjunctive-cpt,jspsych-conjunctive-cpt,,True
42400,171.0,,,#FFFF00,,1.0,1.0,56.43400001525879,,,,,,,32.0,,,triangle,,,,,,,,431440.0,,,15.0,conjunctive-cpt,,,False
42402,173.0,,,#FF0000,,,0.0,57.20000004768372,,,,,,,,,,square,,,,,,,,432206.0,,,15.0,conjunctive-cpt,jspsych-conjunctive-cpt,,True
42404,175.0,,,#FFFF00,,1.0,1.0,57.63300013542175,,,,,,,32.0,,,triangle,,,,,,,,432639.0,,,15.0,conjunctive-cpt,,,False
42418,189.0,,,#FF0000,,,0.0,69.99200010299683,,,,,,,,,,square,,,,,,,,444998.0,,,15.0,conjunctive-cpt,jspsych-conjunctive-cpt,,True
42420,191.0,,,#FFFF00,,1.0,1.0,70.25800013542175,,,,,,,32.0,,,triangle,,,,,,,,445264.0,,,15.0,conjunctive-cpt,,,False
42422,193.0,,,#FF0000,,,0.0,72.61800003051758,,,,,,,,,,square,,,,,,,,447624.0,,,15.0,conjunctive-cpt,jspsych-conjunctive-cpt,,True
42424,195.0,,,#FFFF00,,1.0,1.0,73.07400012016296,,,,,,,32.0,,,triangle,,,,,,,,448080.0,,,15.0,conjunctive-cpt,,,False
42436,207.0,,,#FF0000,,,0.0,82.29500007629395,,,,,,,,,,square,,,,,,,,457301.0,,,15.0,conjunctive-cpt,jspsych-conjunctive-cpt,,True
42438,209.0,,,#FFFF00,,1.0,1.0,82.56200003623962,,,,,,,32.0,,,triangle,,,,,,,,457568.0,,,15.0,conjunctive-cpt,,,False
42442,213.0,,,#FF0000,,,0.0,86.51500010490417,,,,,,,,,,square,,,,,,,,461522.0,,,15.0,conjunctive-cpt,jspsych-conjunctive-cpt,,True
42444,215.0,,,#FFFF00,,1.0,1.0,86.78500008583069,,,,,,,32.0,,,triangle,,,,,,,,461791.0,,,15.0,conjunctive-cpt,,,False
42448,219.0,,,#FF0000,,,0.0,90.23600006103516,,,,,,,,,,square,,,,,,,,465242.0,,,15.0,conjunctive-cpt,jspsych-conjunctive-cpt,,True
42450,221.0,,,#FFFF00,,1.0,1.0,90.5770001411438,,,,,,,32.0,,,triangle,,,,,,,,465583.0,,,15.0,conjunctive-cpt,,,False
42452,223.0,,,#FF0000,,,0.0,91.34400010108948,,,,,,,,,,square,,,,,,,,466350.0,,,15.0,conjunctive-cpt,jspsych-conjunctive-cpt,,True
42454,225.0,,,#FFFF00,,1.0,1.0,91.79299998283386,,,,,,,32.0,,,triangle,,,,,,,,466799.0,,,15.0,conjunctive-cpt,,,False
42458,229.0,,,#FF0000,,,0.0,94.57000017166138,,,,,,,,,,square,,,,,,,,469576.0,,,15.0,conjunctive-cpt,jspsych-conjunctive-cpt,,True
42460,231.0,,,#FFFF00,,1.0,1.0,94.92900013923644,,,,,,,32.0,,,triangle,,,,,,,,469935.0,,,15.0,conjunctive-cpt,,,False
42462,233.0,,,#FF0000,,,0.0,97.19500017166138,,,,,,,,,,square,,,,,,,,472201.0,,,15.0,conjunctive-cpt,jspsych-conjunctive-cpt,,True
42464,235.0,,,#FFFF00,,1.0,1.0,97.55299997329712,,,,,,,32.0,,,triangle,,,,,,,,472559.0,,,15.0,conjunctive-cpt,,,False
42466,237.0,,,#FF0000,,,0.0,98.80299997329712,,,,,,,,,,square,,,,,,,,473809.0,,,15.0,conjunctive-cpt,jspsych-conjunctive-cpt,,True
42468,239.0,,,#FFFF00,,1.0,1.0,99.10500001907349,,,,,,,32.0,,,triangle,,,,,,,,474111.0,,,15.0,conjunctive-cpt,,,False
42474,245.0,,,#FF0000,,,0.0,103.63700008392334,,,,,,,,,,square,,,,,,,,478643.0,,,15.0,conjunctive-cpt,jspsych-conjunctive-cpt,,True
42476,247.0,,,#FFFF00,,1.0,1.0,104.04900002479552,,,,,,,32.0,,,triangle,,,,,,,,479055.0,,,15.0,conjunctive-cpt,,,False
42486,257.0,,,#FF0000,,,0.0,113.69600009918211,,,,,,,,,,square,,,,,,,,488703.0,,,15.0,conjunctive-cpt,jspsych-conjunctive-cpt,,True
42488,259.0,,,#FFFF00,,1.0,1.0,113.93799996376038,,,,,,,32.0,,,triangle,,,,,,,,488944.0,,,15.0,conjunctive-cpt,,,False
42490,261.0,,,#FF0000,,,0.0,115.3050000667572,,,,,,,,,,square,,,,,,,,490311.0,,,15.0,conjunctive-cpt,jspsych-conjunctive-cpt,,True
42492,263.0,,,#FFFF00,,1.0,1.0,115.66600012779236,,,,,,,32.0,,,triangle,,,,,,,,490672.0,,,15.0,conjunctive-cpt,,,False
42502,273.0,,,#FF0000,,,0.0,126.36500000953674,,,,,,,,,,square,,,,,,,,501371.0,,,15.0,conjunctive-cpt,jspsych-conjunctive-cpt,,True
42504,275.0,,,#FFFF00,,1.0,1.0,126.62600016593932,,,,,,,32.0,,,triangle,,,,,,,,501632.0,,,15.0,conjunctive-cpt,,,False
42510,281.0,,,#FF0000,,,0.0,131.7060000896454,,,,,,,,,,square,,,,,,,,506712.0,,,15.0,conjunctive-cpt,jspsych-conjunctive-cpt,,True
42512,283.0,,,#FFFF00,,1.0,1.0,131.97000002861023,,,,,,,32.0,,,triangle,,,,,,,,506976.0,,,15.0,conjunctive-cpt,,,False
42514,285.0,,,#FF0000,,,0.0,134.31500005722046,,,,,,,,,,square,,,,,,,,509321.0,,,15.0,conjunctive-cpt,jspsych-conjunctive-cpt,,True
42516,287.0,,,#FFFF00,,1.0,1.0,134.64100003242493,,,,,,,32.0,,,triangle,,,,,,,,509647.0,,,15.0,conjunctive-cpt,,,False
42538,309.0,,,#FF0000,,,0.0,152.03400015830994,,,,,,,,,,square,,,,,,,,527040.0,,,15.0,conjunctive-cpt,jspsych-conjunctive-cpt,,True
42540,311.0,,,#FFFF00,,1.0,1.0,152.30599999427795,,,,,,,32.0,,,triangle,,,,,,,,527312.0,,,15.0,conjunctive-cpt,,,False
42544,315.0,,,#FF0000,,,0.0,155.25,,,,,,,,,,square,,,,,,,,530256.0,,,15.0,conjunctive-cpt,jspsych-conjunctive-cpt,,True
42546,317.0,,,#FFFF00,,1.0,1.0,155.69700002670288,,,,,,,32.0,,,triangle,,,,,,,,530703.0,,,15.0,conjunctive-cpt,,,False
42552,323.0,,,#FF0000,,,0.0,161.08500003814697,,,,,,,,,,square,,,,,,,,536091.0,,,15.0,conjunctive-cpt,jspsych-conjunctive-cpt,,True
42554,325.0,,,#FFFF00,,1.0,1.0,161.52100014686584,,,,,,,32.0,,,triangle,,,,,,,,536527.0,,,15.0,conjunctive-cpt,,,False
42556,327.0,,,#FF0000,,,0.0,163.20300006866455,,,,,,,,,,square,,,,,,,,538209.0,,,15.0,conjunctive-cpt,jspsych-conjunctive-cpt,,True
42558,329.0,,,#FFFF00,,1.0,1.0,163.58500003814697,,,,,,,32.0,,,triangle,,,,,,,,538591.0,,,15.0,conjunctive-cpt,,,False
42576,347.0,,,#FF0000,,,0.0,178.2020001411438,,,,,,,,,,square,,,,,,,,553208.0,,,15.0,conjunctive-cpt,jspsych-conjunctive-cpt,,True
42582,353.0,,,#FF0000,,,0.0,185.0370001792908,,,,,,,,,,square,,,,,,,,560043.0,,,15.0,conjunctive-cpt,jspsych-conjunctive-cpt,,True
42584,355.0,,,#FFFF00,,1.0,1.0,185.4570000171661,,,,,,,32.0,,,triangle,,,,,,,,560463.0,,,15.0,conjunctive-cpt,,,False
42588,359.0,,,#FF0000,,,0.0,188.7620000839233,,,,,,,,,,square,,,,,,,,563768.0,,,15.0,conjunctive-cpt,jspsych-conjunctive-cpt,,True
42598,369.0,,,#FF0000,,,0.0,196.82000017166135,,,,,,,,,,square,,,,,,,,571826.0,,,15.0,conjunctive-cpt,jspsych-conjunctive-cpt,,True
42600,371.0,,,#FFFF00,,1.0,1.0,197.1380000114441,,,,,,,32.0,,,triangle,,,,,,,,572144.0,,,15.0,conjunctive-cpt,,,False
42602,373.0,,,#FF0000,,,0.0,198.92900013923645,,,,,,,,,,square,,,,,,,,573935.0,,,15.0,conjunctive-cpt,jspsych-conjunctive-cpt,,True
42604,375.0,,,#FFFF00,,1.0,1.0,199.3610000610352,,,,,,,32.0,,,triangle,,,,,,,,574367.0,,,15.0,conjunctive-cpt,,,False
42612,383.0,,,#FF0000,,,0.0,205.3719999790192,,,,,,,,,,square,,,,,,,,580378.0,,,15.0,conjunctive-cpt,jspsych-conjunctive-cpt,,True
42614,385.0,,,#FFFF00,,1.0,1.0,205.6180000305176,,,,,,,32.0,,,triangle,,,,,,,,580624.0,,,15.0,conjunctive-cpt,,,False
42626,397.0,,,#FF0000,,,0.0,218.55800008773804,,,,,,,,,,square,,,,,,,,593564.0,,,15.0,conjunctive-cpt,jspsych-conjunctive-cpt,,True
42628,399.0,,,#FFFF00,,1.0,1.0,218.7850000858307,,,,,,,32.0,,,triangle,,,,,,,,593791.0,,,15.0,conjunctive-cpt,,,False
42644,415.0,,,#FF0000,,,0.0,233.46399998664856,,,,,,,,,,square,,,,,,,,608470.0,,,15.0,conjunctive-cpt,jspsych-conjunctive-cpt,,True
42646,417.0,,,#FFFF00,,1.0,1.0,233.68099999427795,,,,,,,32.0,,,triangle,,,,,,,,608687.0,,,15.0,conjunctive-cpt,,,False
42650,421.0,,,#FF0000,,,0.0,237.6930000782013,,,,,,,,,,square,,,,,,,,612699.0,,,15.0,conjunctive-cpt,jspsych-conjunctive-cpt,,True
42652,423.0,,,#FFFF00,,1.0,1.0,238.0329999923706,,,,,,,32.0,,,triangle,,,,,,,,613039.0,,,15.0,conjunctive-cpt,,,False
42654,425.0,,,#FF0000,,,0.0,240.3000001907349,,,,,,,,,,square,,,,,,,,615306.0,,,15.0,conjunctive-cpt,jspsych-conjunctive-cpt,,True
42656,427.0,,,#FFFF00,,1.0,1.0,240.75300002098083,,,,,,,32.0,,,triangle,,,,,,,,615759.0,,,15.0,conjunctive-cpt,,,False
42660,431.0,,,#FF0000,,,0.0,244.02600002288816,,,,,,,,,,square,,,,,,,,619033.0,,,15.0,conjunctive-cpt,jspsych-conjunctive-cpt,,True
42662,433.0,,,#FFFF00,,1.0,1.0,244.3700001239777,,,,,,,32.0,,,triangle,,,,,,,,619376.0,,,15.0,conjunctive-cpt,,,False
42670,441.0,,,#FF0000,,,0.0,252.48399996757507,,,,,,,,,,square,,,,,,,,627490.0,,,15.0,conjunctive-cpt,jspsych-conjunctive-cpt,,True
42672,443.0,,,#FFFF00,,1.0,1.0,252.8010001182556,,,,,,,32.0,,,triangle,,,,,,,,627807.0,,,15.0,conjunctive-cpt,,,False
42674,445.0,,,#FF0000,,,0.0,254.09300017356875,,,,,,,,,,square,,,,,,,,629099.0,,,15.0,conjunctive-cpt,jspsych-conjunctive-cpt,,True
42676,447.0,,,#FFFF00,,1.0,1.0,254.4650001525879,,,,,,,32.0,,,triangle,,,,,,,,629471.0,,,15.0,conjunctive-cpt,,,False
42680,451.0,,,#FF0000,,,0.0,257.81900000572205,,,,,,,,,,square,,,,,,,,632825.0,,,15.0,conjunctive-cpt,jspsych-conjunctive-cpt,,True
42682,453.0,,,#FFFF00,,1.0,1.0,258.0970001220703,,,,,,,32.0,,,triangle,,,,,,,,633103.0,,,15.0,conjunctive-cpt,,,False
42688,459.0,,,#FF0000,,,0.0,264.15900015830994,,,,,,,,,,square,,,,,,,,639165.0,,,15.0,conjunctive-cpt,jspsych-conjunctive-cpt,,True
42690,461.0,,,#FFFF00,,1.0,1.0,264.3690001964569,,,,,,,32.0,,,triangle,,,,,,,,639375.0,,,15.0,conjunctive-cpt,,,False
42694,465.0,,,#FF0000,,,0.0,267.3949999809265,,,,,,,,,,square,,,,,,,,642401.0,,,15.0,conjunctive-cpt,jspsych-conjunctive-cpt,,True
42696,467.0,,,#FFFF00,,1.0,1.0,267.8580000400543,,,,,,,32.0,,,triangle,,,,,,,,642864.0,,,15.0,conjunctive-cpt,,,False
42710,481.0,,,#FF0000,,,0.0,278.6710000038147,,,,,,,,,,square,,,,,,,,653677.0,,,15.0,conjunctive-cpt,jspsych-conjunctive-cpt,,True
42712,483.0,,,#FFFF00,,1.0,1.0,278.9609999656677,,,,,,,32.0,,,triangle,,,,,,,,653967.0,,,15.0,conjunctive-cpt,,,False
42714,485.0,,,#FF0000,,,0.0,280.27999997138977,,,,,,,,,,square,,,,,,,,655286.0,,,15.0,conjunctive-cpt,jspsych-conjunctive-cpt,,True
42716,487.0,,,#FFFF00,,1.0,1.0,280.6730000972748,,,,,,,32.0,,,triangle,,,,,,,,655679.0,,,15.0,conjunctive-cpt,,,False
42720,491.0,,,#FF0000,,,0.0,282.5130000114441,,,,,,,,,,square,,,,,,,,657519.0,,,15.0,conjunctive-cpt,jspsych-conjunctive-cpt,,True
42722,493.0,,,#FFFF00,,1.0,1.0,282.92900013923645,,,,,,,32.0,,,triangle,,,,,,,,657935.0,,,15.0,conjunctive-cpt,,,False
42724,495.0,,,#FF0000,,,0.0,285.1219999790192,,,,,,,,,,square,,,,,,,,660128.0,,,15.0,conjunctive-cpt,jspsych-conjunctive-cpt,,True
42726,497.0,,,#FFFF00,,1.0,1.0,285.4409999847412,,,,,,,32.0,,,triangle,,,,,,,,660447.0,,,15.0,conjunctive-cpt,,,False
42736,507.0,,,#FF0000,,,0.0,295.6890001296997,,,,,,,,,,square,,,,,,,,670695.0,,,15.0,conjunctive-cpt,jspsych-conjunctive-cpt,,True
42738,509.0,,,#FFFF00,,1.0,1.0,295.9850001335144,,,,,,,32.0,,,triangle,,,,,,,,670991.0,,,15.0,conjunctive-cpt,,,False
42742,513.0,,,#FF0000,,,0.0,299.9140000343323,,,,,,,,,,square,,,,,,,,674920.0,,,15.0,conjunctive-cpt,jspsych-conjunctive-cpt,,True
42744,515.0,,,#FFFF00,,1.0,1.0,300.2090001106262,,,,,,,32.0,,,triangle,,,,,,,,675215.0,,,15.0,conjunctive-cpt,,,False
42746,517.0,,,#FF0000,,,0.0,302.5310001373291,,,,,,,,,,square,,,,,,,,677537.0,,,15.0,conjunctive-cpt,jspsych-conjunctive-cpt,,True
42748,519.0,,,#FFFF00,,1.0,1.0,302.8819999694824,,,,,,,32.0,,,triangle,,,,,,,,677888.0,,,15.0,conjunctive-cpt,,,False
42752,523.0,,,#FF0000,,,0.0,307.2569999694824,,,,,,,,,,square,,,,,,,,682263.0,,,15.0,conjunctive-cpt,jspsych-conjunctive-cpt,,True
42754,525.0,,,#FFFF00,,1.0,1.0,307.664999961853,,,,,,,32.0,,,triangle,,,,,,,,682671.0,,,15.0,conjunctive-cpt,,,False
42764,535.0,,,#FF0000,,,0.0,315.8070001602173,,,,,,,,,,square,,,,,,,,690813.0,,,15.0,conjunctive-cpt,jspsych-conjunctive-cpt,,True
42766,537.0,,,#FFFF00,,1.0,1.0,316.1300001144409,,,,,,,32.0,,,triangle,,,,,,,,691136.0,,,15.0,conjunctive-cpt,,,False
42768,539.0,,,#FF0000,,,0.0,316.9160001277924,,,,,,,,,,square,,,,,,,,691922.0,,,15.0,conjunctive-cpt,jspsych-conjunctive-cpt,,True
42770,541.0,,,#FFFF00,,1.0,1.0,317.2330000400543,,,,,,,32.0,,,triangle,,,,,,,,692239.0,,,15.0,conjunctive-cpt,,,False
42780,551.0,,,#FF0000,,,0.0,324.4670000076294,,,,,,,,,,square,,,,,,,,699473.0,,,15.0,conjunctive-cpt,jspsych-conjunctive-cpt,,True
42782,553.0,,,#FFFF00,,1.0,1.0,324.75300002098083,,,,,,,32.0,,,triangle,,,,,,,,699759.0,,,15.0,conjunctive-cpt,,,False
42786,557.0,,,#FF0000,,,0.0,329.6909999847412,,,,,,,,,,square,,,,,,,,704697.0,,,15.0,conjunctive-cpt,jspsych-conjunctive-cpt,,True
42788,559.0,,,#FFFF00,,1.0,1.0,329.9690001010895,,,,,,,32.0,,,triangle,,,,,,,,704975.0,,,15.0,conjunctive-cpt,,,False
42792,563.0,,,#FF0000,,,0.0,333.9190001487732,,,,,,,,,,square,,,,,,,,708925.0,,,15.0,conjunctive-cpt,jspsych-conjunctive-cpt,,True
42794,565.0,,,#FFFF00,,1.0,1.0,334.3050000667572,,,,,,,32.0,,,triangle,,,,,,,,709311.0,,,15.0,conjunctive-cpt,,,False
42804,575.0,,,#FF0000,,,0.0,341.9680001735687,,,,,,,,,,square,,,,,,,,716974.0,,,15.0,conjunctive-cpt,jspsych-conjunctive-cpt,,True
42806,577.0,,,#FFFF00,,1.0,1.0,342.2730000019073,,,,,,,32.0,,,triangle,,,,,,,,717279.0,,,15.0,conjunctive-cpt,,,False
42810,581.0,,,#FF0000,,,0.0,346.6860001087189,,,,,,,,,,square,,,,,,,,721692.0,,,15.0,conjunctive-cpt,jspsych-conjunctive-cpt,,True
42812,583.0,,,#FFFF00,,1.0,1.0,346.96200013160706,,,,,,,32.0,,,triangle,,,,,,,,721968.0,,,15.0,conjunctive-cpt,,,False
42818,589.0,,,#FF0000,,,0.0,352.0380001068115,,,,,,,,,,square,,,,,,,,727044.0,,,15.0,conjunctive-cpt,jspsych-conjunctive-cpt,,True
42820,591.0,,,#FFFF00,,1.0,1.0,352.2730000019073,,,,,,,32.0,,,triangle,,,,,,,,727279.0,,,15.0,conjunctive-cpt,,,False
42824,595.0,,,#FF0000,,,0.0,354.7520000934601,,,,,,,,,,square,,,,,,,,729758.0,,,15.0,conjunctive-cpt,jspsych-conjunctive-cpt,,True
42826,597.0,,,#FFFF00,,1.0,1.0,355.1050000190735,,,,,,,32.0,,,triangle,,,,,,,,730111.0,,,15.0,conjunctive-cpt,,,False
42832,603.0,,,#FF0000,,,0.0,359.5960001945496,,,,,,,,,,square,,,,,,,,734602.0,,,15.0,conjunctive-cpt,jspsych-conjunctive-cpt,,True
42834,605.0,,,#FFFF00,,1.0,1.0,359.8890001773834,,,,,,,32.0,,,triangle,,,,,,,,734895.0,,,15.0,conjunctive-cpt,,,False
42838,609.0,,,#FF0000,,,0.0,362.3210000991821,,,,,,,,,,square,,,,,,,,737327.0,,,15.0,conjunctive-cpt,jspsych-conjunctive-cpt,,True
42840,611.0,,,#FFFF00,,1.0,1.0,362.6410000324249,,,,,,,32.0,,,triangle,,,,,,,,737647.0,,,15.0,conjunctive-cpt,,,False
42854,625.0,,,#FF0000,,,0.0,378.6210000514984,,,,,,,,,,square,,,,,,,,753627.0,,,15.0,conjunctive-cpt,jspsych-conjunctive-cpt,,True
42856,627.0,,,#FFFF00,,1.0,1.0,378.9460000991821,,,,,,,32.0,,,triangle,,,,,,,,753952.0,,,15.0,conjunctive-cpt,,,False
42858,629.0,,,#FF0000,,,0.0,379.7300000190735,,,,,,,,,,square,,,,,,,,754736.0,,,15.0,conjunctive-cpt,jspsych-conjunctive-cpt,,True
42860,631.0,,,#FFFF00,,1.0,1.0,380.38499999046326,,,,,,,32.0,,,triangle,,,,,,,,755391.0,,,15.0,conjunctive-cpt,,,False
42866,637.0,,,#FF0000,,,0.0,387.0730001926422,,,,,,,,,,square,,,,,,,,762079.0,,,15.0,conjunctive-cpt,jspsych-conjunctive-cpt,,True
42868,639.0,,,#FFFF00,,1.0,1.0,387.3619999885559,,,,,,,32.0,,,triangle,,,,,,,,762368.0,,,15.0,conjunctive-cpt,,,False
42878,649.0,,,#FF0000,,,0.0,396.1240000724793,,,,,,,,,,square,,,,,,,,771130.0,,,15.0,conjunctive-cpt,jspsych-conjunctive-cpt,,True
42880,651.0,,,#FFFF00,,1.0,1.0,396.4330000877381,,,,,,,32.0,,,triangle,,,,,,,,771439.0,,,15.0,conjunctive-cpt,,,False
42886,657.0,,,#FF0000,,,0.0,401.9580001831055,,,,,,,,,,square,,,,,,,,776964.0,,,15.0,conjunctive-cpt,jspsych-conjunctive-cpt,,True
42888,659.0,,,#FFFF00,,1.0,1.0,402.25800013542175,,,,,,,32.0,,,triangle,,,,,,,,777264.0,,,15.0,conjunctive-cpt,,,False
42894,665.0,,,#FF0000,,,0.0,406.2829999923706,,,,,,,,,,square,,,,,,,,781289.0,,,15.0,conjunctive-cpt,jspsych-conjunctive-cpt,,True
42896,667.0,,,#FFFF00,,1.0,1.0,406.625,,,,,,,32.0,,,triangle,,,,,,,,781631.0,,,15.0,conjunctive-cpt,,,False
42928,699.0,,,#FF0000,,,0.0,433.0930001735687,,,,,,,,,,square,,,,,,,,808099.0,,,15.0,conjunctive-cpt,jspsych-conjunctive-cpt,,True
42930,701.0,,,#FFFF00,,1.0,1.0,433.40900015830994,,,,,,,32.0,,,triangle,,,,,,,,808415.0,,,15.0,conjunctive-cpt,,,False
42940,711.0,,,#FF0000,,,0.0,442.1610000133514,,,,,,,,,,square,,,,,,,,817168.0,,,15.0,conjunctive-cpt,jspsych-conjunctive-cpt,,True
42942,713.0,,,#FFFF00,,1.0,1.0,442.6089999675751,,,,,,,32.0,,,triangle,,,,,,,,817615.0,,,15.0,conjunctive-cpt,,,False
42944,715.0,,,#FF0000,,,0.0,443.7699999809265,,,,,,,,,,square,,,,,,,,818776.0,,,15.0,conjunctive-cpt,jspsych-conjunctive-cpt,,True
42946,717.0,,,#FFFF00,,1.0,1.0,444.1449999809265,,,,,,,32.0,,,triangle,,,,,,,,819151.0,,,15.0,conjunctive-cpt,,,False
42948,719.0,,,#FF0000,,,0.0,446.3780000209808,,,,,,,,,,square,,,,,,,,821384.0,,,15.0,conjunctive-cpt,jspsych-conjunctive-cpt,,True
42950,721.0,,,#FFFF00,,1.0,1.0,446.6410000324249,,,,,,,32.0,,,triangle,,,,,,,,821647.0,,,15.0,conjunctive-cpt,,,False
42958,729.0,,,#FF0000,,,0.0,452.835000038147,,,,,,,,,,square,,,,,,,,827841.0,,,15.0,conjunctive-cpt,jspsych-conjunctive-cpt,,True
42960,731.0,,,#FFFF00,,1.0,1.0,453.3129999637604,,,,,,,32.0,,,triangle,,,,,,,,828319.0,,,15.0,conjunctive-cpt,,,False
42966,737.0,,,#FF0000,,,0.0,458.6800000667572,,,,,,,,,,square,,,,,,,,833686.0,,,15.0,conjunctive-cpt,jspsych-conjunctive-cpt,,True
42968,739.0,,,#FFFF00,,1.0,1.0,459.1219999790192,,,,,,,32.0,,,triangle,,,,,,,,834128.0,,,15.0,conjunctive-cpt,,,False
42974,745.0,,,#FF0000,,,0.0,464.5130000114441,,,,,,,,,,square,,,,,,,,839519.0,,,15.0,conjunctive-cpt,jspsych-conjunctive-cpt,,True
42976,747.0,,,#FFFF00,,1.0,1.0,464.8330001831055,,,,,,,32.0,,,triangle,,,,,,,,839839.0,,,15.0,conjunctive-cpt,,,False
42988,759.0,,,#FF0000,,,0.0,477.1890001296997,,,,,,,,,,square,,,,,,,,852195.0,,,15.0,conjunctive-cpt,jspsych-conjunctive-cpt,,True
42990,761.0,,,#FFFF00,,1.0,1.0,477.3780000209808,,,,,,,32.0,,,triangle,,,,,,,,852384.0,,,15.0,conjunctive-cpt,,,False
42998,769.0,,,#FF0000,,,0.0,486.1319999694824,,,,,,,,,,square,,,,,,,,861138.0,,,15.0,conjunctive-cpt,jspsych-conjunctive-cpt,,True
43000,771.0,,,#FFFF00,,1.0,1.0,486.4010000228882,,,,,,,32.0,,,triangle,,,,,,,,861407.0,,,15.0,conjunctive-cpt,,,False
43020,791.0,,,#FF0000,,,0.0,504.26900005340576,,,,,,,,,,square,,,,,,,,879275.0,,,15.0,conjunctive-cpt,jspsych-conjunctive-cpt,,True
43022,793.0,,,#FFFF00,,1.0,1.0,504.6579999923706,,,,,,,32.0,,,triangle,,,,,,,,879664.0,,,15.0,conjunctive-cpt,,,False
43024,795.0,,,#FF0000,,,0.0,506.375,,,,,,,,,,square,,,,,,,,881381.0,,,15.0,conjunctive-cpt,jspsych-conjunctive-cpt,,True
43026,797.0,,,#FFFF00,,1.0,1.0,506.75400018692017,,,,,,,32.0,,,triangle,,,,,,,,881760.0,,,15.0,conjunctive-cpt,,,False
43028,799.0,,,#FF0000,,,0.0,507.4930000305176,,,,,,,,,,square,,,,,,,,882499.0,,,15.0,conjunctive-cpt,jspsych-conjunctive-cpt,,True
43030,801.0,,,#FFFF00,,1.0,1.0,507.8250000476837,,,,,,,32.0,,,triangle,,,,,,,,882831.0,,,15.0,conjunctive-cpt,,,False
43054,825.0,,,#FF0000,,,0.0,532.3289999961853,,,,,,,,,,square,,,,,,,,907335.0,,,15.0,conjunctive-cpt,jspsych-conjunctive-cpt,,True
43056,827.0,,,#FFFF00,,1.0,1.0,532.6890001296997,,,,,,,32.0,,,triangle,,,,,,,,907695.0,,,15.0,conjunctive-cpt,,,False
43058,829.0,,,#FF0000,,,0.0,533.9370000362396,,,,,,,,,,square,,,,,,,,908943.0,,,15.0,conjunctive-cpt,jspsych-conjunctive-cpt,,True
43060,831.0,,,#FFFF00,,1.0,1.0,534.2410001754761,,,,,,,32.0,,,triangle,,,,,,,,909247.0,,,15.0,conjunctive-cpt,,,False
43062,833.0,,,#FF0000,,,0.0,535.545000076294,,,,,,,,,,square,,,,,,,,910551.0,,,15.0,conjunctive-cpt,jspsych-conjunctive-cpt,,True
43064,835.0,,,#FFFF00,,1.0,1.0,535.7929999828339,,,,,,,32.0,,,triangle,,,,,,,,910799.0,,,15.0,conjunctive-cpt,,,False
43076,847.0,,,#FF0000,,,0.0,546.2130000591278,,,,,,,,,,square,,,,,,,,921219.0,,,15.0,conjunctive-cpt,jspsych-conjunctive-cpt,,True
43078,849.0,,,#FFFF00,,1.0,1.0,546.5930001735687,,,,,,,32.0,,,triangle,,,,,,,,921599.0,,,15.0,conjunctive-cpt,,,False
43080,851.0,,,#FF0000,,,0.0,548.8359999656677,,,,,,,,,,square,,,,,,,,923842.0,,,15.0,conjunctive-cpt,jspsych-conjunctive-cpt,,True
43082,853.0,,,#FFFF00,,1.0,1.0,549.1690001487732,,,,,,,32.0,,,triangle,,,,,,,,924175.0,,,15.0,conjunctive-cpt,,,False
43084,855.0,,,#FF0000,,,0.0,549.9470000267029,,,,,,,,,,square,,,,,,,,924953.0,,,15.0,conjunctive-cpt,jspsych-conjunctive-cpt,,True
43086,857.0,,,#FFFF00,,1.0,1.0,550.2090001106262,,,,,,,32.0,,,triangle,,,,,,,,925215.0,,,15.0,conjunctive-cpt,,,False
43088,859.0,,,#FF0000,,,0.0,551.0550000667572,,,,,,,,,,square,,,,,,,,926061.0,,,15.0,conjunctive-cpt,jspsych-conjunctive-cpt,,True
43090,861.0,,,#FFFF00,,1.0,1.0,551.297000169754,,,,,,,32.0,,,triangle,,,,,,,,926303.0,,,15.0,conjunctive-cpt,,,False
43096,867.0,,,#FF0000,,,0.0,556.8960001468658,,,,,,,,,,square,,,,,,,,931902.0,,,15.0,conjunctive-cpt,jspsych-conjunctive-cpt,,True
43098,869.0,,,#FFFF00,,1.0,1.0,557.0889999866486,,,,,,,32.0,,,triangle,,,,,,,,932095.0,,,15.0,conjunctive-cpt,,,False
43102,873.0,,,#FF0000,,,0.0,561.1230001449585,,,,,,,,,,square,,,,,,,,936129.0,,,15.0,conjunctive-cpt,jspsych-conjunctive-cpt,,True
43104,875.0,,,#FFFF00,,1.0,1.0,561.4570000171661,,,,,,,32.0,,,triangle,,,,,,,,936463.0,,,15.0,conjunctive-cpt,,,False
43114,885.0,,,#FF0000,,,0.0,572.180999994278,,,,,,,,,,square,,,,,,,,947187.0,,,15.0,conjunctive-cpt,jspsych-conjunctive-cpt,,True
43116,887.0,,,#FFFF00,,1.0,1.0,572.5130000114441,,,,,,,32.0,,,triangle,,,,,,,,947519.0,,,15.0,conjunctive-cpt,,,False
43122,893.0,,,#FF0000,,,0.0,576.5240001678467,,,,,,,,,,square,,,,,,,,951531.0,,,15.0,conjunctive-cpt,jspsych-conjunctive-cpt,,True
43124,895.0,,,#FFFF00,,1.0,1.0,576.9609999656677,,,,,,,32.0,,,triangle,,,,,,,,951967.0,,,15.0,conjunctive-cpt,,,False
43126,897.0,,,#FF0000,,,0.0,579.1480000019073,,,,,,,,,,square,,,,,,,,954155.0,,,15.0,conjunctive-cpt,jspsych-conjunctive-cpt,,True
43128,899.0,,,#FFFF00,,1.0,1.0,579.5529999732971,,,,,,,32.0,,,triangle,,,,,,,,954559.0,,,15.0,conjunctive-cpt,,,False
