,color,correct,cpt_response,current_time,inter_stimulus_interval_index,inter_stimulus_interval_time,response,responses,rt,shape,time_elapsed,time_post_trial,trial_began,trial_index,trial_type,type,stimulus_missed
0,,,,,,,,,89858,,89859,,,0,instructions,,
1,,,,,,,,"{""Q0"":""אישה"",""Q1"":""ימין"",""Q2"":""אנגלית""}",15389,,105252,,,1,survey-multi-choice,,
2,,,,,,,,"{""Q0"":""23""}",3935,,109187,,,2,survey-text,,
3,,,,,,,,"{""Q0"":""כן""}",2680,,111867,,,3,survey-multi-choice,,
4,,,,,,,,"{""Q0"":6}",6048,,117915,,,4,survey-likert,,
5,,,,,,,,,7705,,125620,,,5,instructions,,
6,,,,,,,,"{""Q0"":3,""Q1"":4,""Q2"":4}",16254,,141875,,,6,survey-likert,,
7,,,,,,,,"{""Q0"":4,""Q1"":4,""Q2"":3}",36735,,178612,,,7,survey-likert,,
8,,,,,,,,"{""Q0"":0,""Q1"":1,""Q2"":3}",14174,,192787,,,8,survey-likert,,
9,,,,,,,,"{""Q0"":4,""Q1"":3,""Q2"":3}",31111,,223899,,,9,survey-likert,,
10,,,,,,,,"{""Q0"":4,""Q1"":2,""Q2"":3}",15279,,239179,,,10,survey-likert,,
11,,,,,,,,"{""Q0"":3,""Q1"":3,""Q2"":2}",14423,,253604,,,11,survey-likert,,
12,,,,,,,,,28079,,281683,,,12,instructions,,
13,,,,,,,,,3186.799999,,284969,400,0,13,bRMS,,
14,,,,,,,,,1347.6,,286808,400,0,14,bRMS,,
15,,,,,,,,,1217.200001,,288519,400,0,15,bRMS,,
16,,,,,,,,,1276.9,,290280,400,0,16,bRMS,,
17,,,,,,,,,2138.9,,292903,400,0,17,bRMS,,
18,,,,,,,,,1696.5,,295112,400,0,18,bRMS,,
19,,,,,,,,,1174.4,,296776,400,0,19,bRMS,,
20,,,,,,,,,1685.700001,,298952,400,0,20,bRMS,,
21,,,,,,,,,2206.9,,301655,400,0,21,bRMS,,
22,,,,,,,,,2846.1,,304983,400,0,22,bRMS,,
23,,,,,,,,,5542,,310939,,,23,instructions,,
24,,,,,,,,,1546.5,,312584,400,0,24,bRMS,,
25,,,,,,,,,1648.599998,,314727,400,0,25,bRMS,,
26,,,,,,,,,1067.200001,,316280,400,0,26,bRMS,,
27,,,,,,,,,2166.9,,318936,400,0,27,bRMS,,
28,,,,,,,,,1538.799999,,320984,400,0,28,bRMS,,
29,,,,,,,,,1374.5,,322856,400,0,29,bRMS,,
30,,,,,,,,,1640.1,,325000,400,0,30,bRMS,,
31,,,,,,,,,1524.300001,,327031,400,0,31,bRMS,,
32,,,,,,,,,1799.9,,329319,400,0,32,bRMS,,
33,,,,,,,,,1761.5,,331561,400,0,33,bRMS,,
34,,,,,,,,,1549,,333591,400,0,34,bRMS,,
35,,,,,,,,,2083.1,,336167,400,0,35,bRMS,,
36,,,,,,,,,1106.799999,,337783,400,0,36,bRMS,,
37,,,,,,,,,1311.699999,,339591,400,0,37,bRMS,,
38,,,,,,,,,1400.699999,,341480,400,0,38,bRMS,,
39,,,,,,,,,1025.800001,,343000,400,0,39,bRMS,,
40,,,,,,,,,1546.099998,,345031,400,0,40,bRMS,,
41,,,,,,,,,1358.799999,,346887,400,0,41,bRMS,,
42,,,,,,,,,1666.299999,,349048,400,0,42,bRMS,,
43,,,,,,,,,1556,,351096,400,0,43,bRMS,,
44,,,,,,,,,1652.200001,,353240,400,0,44,bRMS,,
45,,,,,,,,,1628.400002,,355352,400,0,45,bRMS,,
46,,,,,,,,,1396.599998,,357240,400,0,46,bRMS,,
47,,,,,,,,,2733.5,,360457,400,0,47,bRMS,,
48,,,,,,,,,1534.6,,362472,400,0,48,bRMS,,
49,,,,,,,,,1445.6,,364392,400,0,49,bRMS,,
50,,,,,,,,,1394.1,,366265,400,0,50,bRMS,,
51,,,,,,,,,1080.699999,,367847,400,0,51,bRMS,,
52,,,,,,,,,1669.199999,,369992,400,0,52,bRMS,,
53,,,,,,,,,1882.6,,372361,400,0,53,bRMS,,
54,,,,,,,,,1325.4,,374183,400,0,54,bRMS,,
55,,,,,,,,,1495.5,,376184,400,0,55,bRMS,,
56,,,,,,,,,1301.699999,,377960,400,0,56,bRMS,,
57,,,,,,,,,1193,,379655,400,0,57,bRMS,,
58,,,,,,,,,2302.300001,,382440,400,0,58,bRMS,,
59,,,,,,,,,1870.200001,,384808,400,0,59,bRMS,,
60,,,,,,,,,1115.200001,,386425,400,0,60,bRMS,,
61,,,,,,,,,1553.699999,,388456,400,0,61,bRMS,,
62,,,,,,,,,1660.700001,,390600,400,0,62,bRMS,,
63,,,,,,,,,1274.200001,,392359,400,0,63,bRMS,,
64,,,,,,,,,2289.199999,,395127,400,0,64,bRMS,,
65,,,,,,,,,639.7999992,,396265,400,0,65,bRMS,,
66,,,,,,,,,1130.6,,397880,400,0,66,bRMS,,
67,,,,,,,,,1140.299999,,399513,400,0,67,bRMS,,
68,,,,,,,,,1332.599998,,401335,400,0,68,bRMS,,
69,,,,,,,,,1298.199999,,403128,400,0,69,bRMS,,
70,,,,,,,,,1020.099998,,404632,400,0,70,bRMS,,
71,,,,,,,,,1302.699999,,406424,400,0,71,bRMS,,
72,,,,,,,,,924,,407831,400,0,72,bRMS,,
73,,,,,,,,,1108.5,,409417,400,0,73,bRMS,,
74,,,,,,,,,1176.199999,,411080,400,0,74,bRMS,,
75,,,,,,,,,1600.799999,,413160,400,0,75,bRMS,,
76,,,,,,,,,1570.699999,,415223,400,0,76,bRMS,,
77,,,,,,,,,1345.299999,,417063,400,0,77,bRMS,,
78,,,,,,,,,820.2000008,,418393,400,0,78,bRMS,,
79,,,,,,,,,1262.5,,420153,400,0,79,bRMS,,
80,,,,,,,,,1594,,422232,400,0,80,bRMS,,
81,,,,,,,,,1371.9,,424088,400,0,81,bRMS,,
82,,,,,,,,,1249.699999,,425816,400,0,82,bRMS,,
83,,,,,,,,,1368.4,,427672,400,0,83,bRMS,,
84,,,,,,,,,6145,,434219,,,84,instructions,,
85,,,FALSE,0,0,2000,,,,,434322,,,85,conjunctive-cpt,jspsych-conjunctive-cpt,
86,#FFFF00,,FALSE,0.115999937,,,,,,circle,434437,,,85,conjunctive-cpt,jspsych-conjunctive-cpt,
87,,,FALSE,2.122999907,1,2000,,,,,436444,,,85,conjunctive-cpt,jspsych-conjunctive-cpt,
88,#00FF00,,FALSE,2.224999905,,,,,,triangle,436546,,,85,conjunctive-cpt,jspsych-conjunctive-cpt,
89,,,FALSE,4.236000061,2,2500,,,,,438557,,,85,conjunctive-cpt,jspsych-conjunctive-cpt,
90,#FF0000,,FALSE,4.342999935,,,,,,circle,438664,,,85,conjunctive-cpt,jspsych-conjunctive-cpt,
91,,,FALSE,6.845999956,3,1500,,,,,441167,,,85,conjunctive-cpt,jspsych-conjunctive-cpt,
92,#0000FF,,FALSE,6.950000048,,,,,,triangle,441271,,,85,conjunctive-cpt,jspsych-conjunctive-cpt,
93,,,FALSE,8.460999966,4,2000,,,,,442782,,,85,conjunctive-cpt,jspsych-conjunctive-cpt,
94,#FF0000,,FALSE,8.572999954,,,,,,triangle,442895,,,85,conjunctive-cpt,jspsych-conjunctive-cpt,
95,,,FALSE,10.58200002,5,1500,,,,,444903,,,85,conjunctive-cpt,jspsych-conjunctive-cpt,
96,#00FF00,,FALSE,10.68499994,,,,,,triangle,445006,,,85,conjunctive-cpt,jspsych-conjunctive-cpt,
97,,,FALSE,12.19000006,6,2000,,,,,446511,,,85,conjunctive-cpt,jspsych-conjunctive-cpt,
98,#FFFF00,,FALSE,12.29200006,,,,,,triangle,446613,,,85,conjunctive-cpt,jspsych-conjunctive-cpt,
99,,,FALSE,14.3039999,7,1000,,,,,448625,,,85,conjunctive-cpt,jspsych-conjunctive-cpt,
100,#00FF00,,FALSE,14.41000009,,,,,,circle,448731,,,85,conjunctive-cpt,jspsych-conjunctive-cpt,
101,,,FALSE,15.41599989,8,2000,,,,,449737,,,85,conjunctive-cpt,jspsych-conjunctive-cpt,
102,#FF0000,,FALSE,15.51799989,,,,,,square,449840,,,85,conjunctive-cpt,jspsych-conjunctive-cpt,
103,#0000FF,TRUE,TRUE,15.87400007,,,32,,,circle,450196,,,85,conjunctive-cpt,,
104,,,FALSE,17.52799988,9,1500,,,,,451849,,,85,conjunctive-cpt,jspsych-conjunctive-cpt,
105,#FF0000,,FALSE,17.64100003,,,,,,square,451962,,,85,conjunctive-cpt,jspsych-conjunctive-cpt,
106,#0000FF,TRUE,TRUE,17.875,,,32,,,circle,452196,,,85,conjunctive-cpt,,
107,,,FALSE,19.14499998,10,1500,,,,,453467,,,85,conjunctive-cpt,jspsych-conjunctive-cpt,
108,#FF0000,,FALSE,19.2579999,,,,,,square,453579,,,85,conjunctive-cpt,jspsych-conjunctive-cpt,
109,#0000FF,TRUE,TRUE,19.50600004,,,32,,,circle,453827,,,85,conjunctive-cpt,,
110,,,FALSE,20.773,11,2500,,,,,455094,,,85,conjunctive-cpt,jspsych-conjunctive-cpt,
111,#0000FF,,FALSE,20.87700009,,,,,,triangle,455198,,,85,conjunctive-cpt,jspsych-conjunctive-cpt,
112,,,FALSE,23.38100004,12,2500,,,,,457702,,,85,conjunctive-cpt,jspsych-conjunctive-cpt,
113,#FF0000,,FALSE,23.49600005,,,,,,triangle,457817,,,85,conjunctive-cpt,jspsych-conjunctive-cpt,
114,#0000FF,FALSE,TRUE,23.69700003,,,32,,,circle,458019,,,85,conjunctive-cpt,,
115,,,FALSE,26.00399995,13,1000,,,,,460325,,,85,conjunctive-cpt,jspsych-conjunctive-cpt,
116,#FF0000,,FALSE,26.11100006,,,,,,circle,460432,,,85,conjunctive-cpt,jspsych-conjunctive-cpt,
117,,,FALSE,27.1170001,14,2500,,,,,461438,,,85,conjunctive-cpt,jspsych-conjunctive-cpt,
118,#FF0000,,FALSE,27.21799994,,,,,,square,461539,,,85,conjunctive-cpt,jspsych-conjunctive-cpt,
119,#0000FF,TRUE,TRUE,27.5539999,,,32,,,circle,461875,,,85,conjunctive-cpt,,
120,,,FALSE,29.727,15,1500,,,,,464048,,,85,conjunctive-cpt,jspsych-conjunctive-cpt,
121,#0000FF,,FALSE,29.82800007,,,,,,square,464149,,,85,conjunctive-cpt,jspsych-conjunctive-cpt,
122,#0000FF,FALSE,TRUE,30.01799989,,,32,,,circle,464339,,,85,conjunctive-cpt,,
123,,,FALSE,31.329,16,2500,,,,,465650,,,85,conjunctive-cpt,jspsych-conjunctive-cpt,
124,#FF0000,,FALSE,31.44400001,,,,,,square,465765,,,85,conjunctive-cpt,jspsych-conjunctive-cpt,
125,#0000FF,TRUE,TRUE,31.68199992,,,32,,,circle,466004,,,85,conjunctive-cpt,,
126,,,FALSE,33.95300007,17,2500,,,,,468274,,,85,conjunctive-cpt,jspsych-conjunctive-cpt,
127,#0000FF,,FALSE,34.06800008,,,,,,square,468389,,,85,conjunctive-cpt,jspsych-conjunctive-cpt,
128,#0000FF,FALSE,TRUE,34.5769999,,,32,,,circle,468899,,,85,conjunctive-cpt,,
129,,,FALSE,36.57399988,18,2500,,,,,470895,,,85,conjunctive-cpt,jspsych-conjunctive-cpt,
130,#FFFF00,,FALSE,36.67799997,,,,,,square,470999,,,85,conjunctive-cpt,jspsych-conjunctive-cpt,
131,,,FALSE,39.19000006,19,2500,,,,,473511,,,85,conjunctive-cpt,jspsych-conjunctive-cpt,
132,#0000FF,,FALSE,39.296,,,,,,triangle,473617,,,85,conjunctive-cpt,jspsych-conjunctive-cpt,
133,,,FALSE,41.79999995,20,1000,,,,,476121,,,85,conjunctive-cpt,jspsych-conjunctive-cpt,
134,#FF0000,,FALSE,41.90299988,,,,,,square,476224,,,85,conjunctive-cpt,jspsych-conjunctive-cpt,
135,#0000FF,TRUE,TRUE,42.21000004,,,32,,,circle,476531,,,85,conjunctive-cpt,,
136,,,FALSE,42.91199994,21,1500,,,,,477233,,,85,conjunctive-cpt,jspsych-conjunctive-cpt,
137,#FFFF00,,FALSE,43.01200008,,,,,,square,477333,,,85,conjunctive-cpt,jspsych-conjunctive-cpt,
138,,,FALSE,44.523,22,1500,,,,,478844,,,85,conjunctive-cpt,jspsych-conjunctive-cpt,
139,#FF0000,,FALSE,44.63499999,,,,,,square,478956,,,85,conjunctive-cpt,jspsych-conjunctive-cpt,
140,#0000FF,TRUE,TRUE,44.96099997,,,32,,,circle,479283,,,85,conjunctive-cpt,,
141,,,FALSE,46.14599991,23,2000,,,,,480468,,,85,conjunctive-cpt,jspsych-conjunctive-cpt,
142,#FF0000,,FALSE,46.25999999,,,,,,square,480581,,,85,conjunctive-cpt,jspsych-conjunctive-cpt,
143,#0000FF,TRUE,TRUE,46.40199995,,,32,,,circle,480723,,,85,conjunctive-cpt,,
144,,,FALSE,48.27600002,24,1000,,,,,482597,,,85,conjunctive-cpt,jspsych-conjunctive-cpt,
145,#FF0000,,FALSE,48.37899995,,,,,,square,482700,,,85,conjunctive-cpt,jspsych-conjunctive-cpt,
146,#0000FF,TRUE,TRUE,48.81699991,,,32,,,circle,483139,,,85,conjunctive-cpt,,
147,,,FALSE,49.38100004,25,1000,,,,,483702,,,85,conjunctive-cpt,jspsych-conjunctive-cpt,
148,#00FF00,,FALSE,49.49399996,,,,,,square,483815,,,85,conjunctive-cpt,jspsych-conjunctive-cpt,
149,#0000FF,FALSE,TRUE,49.921,,,32,,,circle,484243,,,85,conjunctive-cpt,,
150,,,FALSE,50.49699998,26,1000,,,,,484818,,,85,conjunctive-cpt,jspsych-conjunctive-cpt,
151,#FF0000,,FALSE,50.61100006,,,,,,triangle,484932,,,85,conjunctive-cpt,jspsych-conjunctive-cpt,
152,#0000FF,FALSE,TRUE,50.84899998,,,32,,,circle,485171,,,85,conjunctive-cpt,,
153,#0000FF,FALSE,TRUE,50.9289999,,,32,,,circle,485250,,,85,conjunctive-cpt,,
154,,,FALSE,51.6170001,27,1000,,,,,485938,,,85,conjunctive-cpt,jspsych-conjunctive-cpt,
155,#0000FF,,FALSE,51.72199988,,,,,,circle,486043,,,85,conjunctive-cpt,jspsych-conjunctive-cpt,
156,,,FALSE,52.727,28,2000,,,,,487048,,,85,conjunctive-cpt,jspsych-conjunctive-cpt,
157,#FFFF00,,FALSE,52.829,,,,,,triangle,487150,,,85,conjunctive-cpt,jspsych-conjunctive-cpt,
158,,,FALSE,54.84500003,29,,,,,,489167,,,85,conjunctive-cpt,jspsych-conjunctive-cpt,
159,#0000FF,,FALSE,54.94700003,,,,,,circle,489268,,,85,conjunctive-cpt,jspsych-conjunctive-cpt,
160,,,FALSE,54.9519999,30,,,,,,489273,,,85,conjunctive-cpt,jspsych-conjunctive-cpt,
161,,,,,,,,,,,489284,,,85,conjunctive-cpt,,
162,,,,,,,,,2727,,492011,,,86,instructions,,
163,,,FALSE,0,0,1500,,,,,492124,,,87,conjunctive-cpt,jspsych-conjunctive-cpt,
164,#00FF00,,FALSE,0.102999926,,,,,,square,492227,,,87,conjunctive-cpt,jspsych-conjunctive-cpt,
165,,,FALSE,1.614000082,1,1500,,,,,493738,,,87,conjunctive-cpt,jspsych-conjunctive-cpt,
166,#FF0000,,FALSE,1.720000029,,,,,,square,493844,,,87,conjunctive-cpt,jspsych-conjunctive-cpt,
167,#0000FF,FALSE,TRUE,59.79399991,,,32,,,circle,494115,,,87,conjunctive-cpt,,
168,#FFFF00,TRUE,TRUE,1.990999937,,,32,,,triangle,494115,,,87,conjunctive-cpt,,
169,,,FALSE,3.224999905,2,1500,,,,,495349,,,87,conjunctive-cpt,jspsych-conjunctive-cpt,
170,#0000FF,,FALSE,3.328000069,,,,,,triangle,495452,,,87,conjunctive-cpt,jspsych-conjunctive-cpt,
171,,,FALSE,4.834000111,3,1000,,,,,496958,,,87,conjunctive-cpt,jspsych-conjunctive-cpt,
172,#0000FF,,FALSE,4.937000036,,,,,,circle,497061,,,87,conjunctive-cpt,jspsych-conjunctive-cpt,
173,,,FALSE,5.947999954,4,2000,,,,,498072,,,87,conjunctive-cpt,jspsych-conjunctive-cpt,
174,#FF0000,,FALSE,6.052000046,,,,,,circle,498176,,,87,conjunctive-cpt,jspsych-conjunctive-cpt,
175,,,FALSE,8.059000015,5,2500,,,,,500183,,,87,conjunctive-cpt,jspsych-conjunctive-cpt,
176,#FF0000,,FALSE,8.161000013,,,,,,square,500285,,,87,conjunctive-cpt,jspsych-conjunctive-cpt,
177,#0000FF,FALSE,TRUE,66.2579999,,,32,,,circle,500579,,,87,conjunctive-cpt,,
178,#FFFF00,TRUE,TRUE,8.454999924,,,32,,,triangle,500579,,,87,conjunctive-cpt,,
179,,,FALSE,10.66700006,6,2500,,,,,502791,,,87,conjunctive-cpt,jspsych-conjunctive-cpt,
180,#FF0000,,FALSE,10.76999998,,,,,,square,502894,,,87,conjunctive-cpt,jspsych-conjunctive-cpt,
181,#0000FF,FALSE,TRUE,68.9289999,,,32,,,circle,503250,,,87,conjunctive-cpt,,
182,#FFFF00,TRUE,TRUE,11.12599993,,,32,,,triangle,503250,,,87,conjunctive-cpt,,
183,,,FALSE,13.2750001,7,2500,,,,,505399,,,87,conjunctive-cpt,jspsych-conjunctive-cpt,
184,#00FF00,,FALSE,13.37800002,,,,,,triangle,505502,,,87,conjunctive-cpt,jspsych-conjunctive-cpt,
185,,,FALSE,15.8900001,8,1000,,,,,508014,,,87,conjunctive-cpt,jspsych-conjunctive-cpt,
186,#FF0000,,FALSE,15.99699998,,,,,,circle,508121,,,87,conjunctive-cpt,jspsych-conjunctive-cpt,
187,,,FALSE,17.00099993,9,2500,,,,,509125,,,87,conjunctive-cpt,jspsych-conjunctive-cpt,
188,#FF0000,,FALSE,17.10400009,,,,,,square,509228,,,87,conjunctive-cpt,jspsych-conjunctive-cpt,
189,#0000FF,FALSE,TRUE,75.26600003,,,32,,,circle,509587,,,87,conjunctive-cpt,,
190,#FFFF00,TRUE,TRUE,17.46300006,,,32,,,triangle,509587,,,87,conjunctive-cpt,,
191,,,FALSE,19.61000013,10,2500,,,,,511734,,,87,conjunctive-cpt,jspsych-conjunctive-cpt,
192,#FF0000,,FALSE,19.71200013,,,,,,triangle,511836,,,87,conjunctive-cpt,jspsych-conjunctive-cpt,
193,,,FALSE,22.227,11,1000,,,,,514351,,,87,conjunctive-cpt,jspsych-conjunctive-cpt,
194,#FF0000,,FALSE,22.32999992,,,,,,square,514454,,,87,conjunctive-cpt,jspsych-conjunctive-cpt,
195,#0000FF,FALSE,TRUE,80.36999989,,,32,,,circle,514691,,,87,conjunctive-cpt,,
196,#FFFF00,TRUE,TRUE,22.56699991,,,32,,,triangle,514691,,,87,conjunctive-cpt,,
197,,,FALSE,23.33500004,12,1000,,,,,515459,,,87,conjunctive-cpt,jspsych-conjunctive-cpt,
198,#0000FF,,FALSE,23.43700004,,,,,,square,515561,,,87,conjunctive-cpt,jspsych-conjunctive-cpt,
199,,,FALSE,24.44400001,13,2500,,,,,516568,,,87,conjunctive-cpt,jspsych-conjunctive-cpt,
200,#FF0000,,FALSE,24.54500008,,,,,,triangle,516669,,,87,conjunctive-cpt,jspsych-conjunctive-cpt,
201,,,FALSE,27.05800009,14,1000,,,,,519182,,,87,conjunctive-cpt,jspsych-conjunctive-cpt,
202,#FF0000,,FALSE,27.16400003,,,,,,triangle,519288,,,87,conjunctive-cpt,jspsych-conjunctive-cpt,
203,,,FALSE,28.16899991,15,2000,,,,,520293,,,87,conjunctive-cpt,jspsych-conjunctive-cpt,
204,#FF0000,,FALSE,28.27200007,,,,,,square,520396,,,87,conjunctive-cpt,jspsych-conjunctive-cpt,
205,#0000FF,FALSE,TRUE,86.51300001,,,32,,,circle,520835,,,87,conjunctive-cpt,,
206,#FFFF00,TRUE,TRUE,28.71099997,,,32,,,triangle,520835,,,87,conjunctive-cpt,,
207,,,FALSE,30.27800012,16,2000,,,,,522402,,,87,conjunctive-cpt,jspsych-conjunctive-cpt,
208,#0000FF,,FALSE,30.38000011,,,,,,circle,522504,,,87,conjunctive-cpt,jspsych-conjunctive-cpt,
209,,,FALSE,32.39100003,17,2000,,,,,524515,,,87,conjunctive-cpt,jspsych-conjunctive-cpt,
210,#FF0000,,FALSE,32.50300002,,,,,,square,524627,,,87,conjunctive-cpt,jspsych-conjunctive-cpt,
211,#0000FF,FALSE,TRUE,90.62599993,,,32,,,circle,524947,,,87,conjunctive-cpt,,
212,#FFFF00,TRUE,TRUE,32.82299995,,,32,,,triangle,524947,,,87,conjunctive-cpt,,
213,,,FALSE,34.50999999,18,1000,,,,,526634,,,87,conjunctive-cpt,jspsych-conjunctive-cpt,
214,#0000FF,,FALSE,34.61400008,,,,,,triangle,526738,,,87,conjunctive-cpt,jspsych-conjunctive-cpt,
215,,,FALSE,35.62100005,19,1000,,,,,527745,,,87,conjunctive-cpt,jspsych-conjunctive-cpt,
216,#0000FF,,FALSE,35.72200012,,,,,,square,527846,,,87,conjunctive-cpt,jspsych-conjunctive-cpt,
217,,,FALSE,36.72900009,20,1500,,,,,528853,,,87,conjunctive-cpt,jspsych-conjunctive-cpt,
218,#FFFF00,,FALSE,36.82999992,,,,,,square,528954,,,87,conjunctive-cpt,jspsych-conjunctive-cpt,
219,,,FALSE,38.33700013,21,1500,,,,,530461,,,87,conjunctive-cpt,jspsych-conjunctive-cpt,
220,#FFFF00,,FALSE,38.43900013,,,,,,square,530563,,,87,conjunctive-cpt,jspsych-conjunctive-cpt,
221,,,FALSE,39.94499993,22,2000,,,,,532069,,,87,conjunctive-cpt,jspsych-conjunctive-cpt,
222,#FF0000,,FALSE,40.0480001,,,,,,square,532172,,,87,conjunctive-cpt,jspsych-conjunctive-cpt,
223,#0000FF,FALSE,TRUE,98.14499998,,,32,,,circle,532466,,,87,conjunctive-cpt,,
224,#FFFF00,TRUE,TRUE,40.34200001,,,32,,,triangle,532466,,,87,conjunctive-cpt,,
225,,,FALSE,42.05800009,23,1000,,,,,534182,,,87,conjunctive-cpt,jspsych-conjunctive-cpt,
226,#0000FF,,FALSE,42.171,,,,,,square,534295,,,87,conjunctive-cpt,jspsych-conjunctive-cpt,
227,,,FALSE,43.1789999,24,1000,,,,,535303,,,87,conjunctive-cpt,jspsych-conjunctive-cpt,
228,#00FF00,,FALSE,43.2809999,,,,,,square,535405,,,87,conjunctive-cpt,jspsych-conjunctive-cpt,
229,,,FALSE,44.28699994,25,1000,,,,,536411,,,87,conjunctive-cpt,jspsych-conjunctive-cpt,
230,#FF0000,,FALSE,44.38899994,,,,,,square,536514,,,87,conjunctive-cpt,jspsych-conjunctive-cpt,
231,#0000FF,FALSE,TRUE,102.4990001,,,32,,,circle,536820,,,87,conjunctive-cpt,,
232,#FFFF00,TRUE,TRUE,44.6960001,,,32,,,triangle,536820,,,87,conjunctive-cpt,,
233,,,FALSE,45.39499998,26,1000,,,,,537519,,,87,conjunctive-cpt,jspsych-conjunctive-cpt,
234,#FFFF00,,FALSE,45.49799991,,,,,,triangle,537622,,,87,conjunctive-cpt,jspsych-conjunctive-cpt,
235,,,FALSE,46.50999999,27,2500,,,,,538634,,,87,conjunctive-cpt,jspsych-conjunctive-cpt,
236,#FFFF00,,FALSE,46.61400008,,,,,,square,538738,,,87,conjunctive-cpt,jspsych-conjunctive-cpt,
237,,,FALSE,49.12000012,28,1000,,,,,541244,,,87,conjunctive-cpt,jspsych-conjunctive-cpt,
238,#FFFF00,,FALSE,49.22399998,,,,,,circle,541348,,,87,conjunctive-cpt,jspsych-conjunctive-cpt,
239,,,FALSE,50.22900009,29,1000,,,,,542353,,,87,conjunctive-cpt,jspsych-conjunctive-cpt,
240,#FFFF00,,FALSE,50.33100009,,,,,,triangle,542455,,,87,conjunctive-cpt,jspsych-conjunctive-cpt,
241,,,FALSE,51.3440001,30,1500,,,,,543468,,,87,conjunctive-cpt,jspsych-conjunctive-cpt,
242,#FFFF00,,FALSE,51.45700002,,,,,,circle,543581,,,87,conjunctive-cpt,jspsych-conjunctive-cpt,
243,,,FALSE,52.96300006,31,2500,,,,,545087,,,87,conjunctive-cpt,jspsych-conjunctive-cpt,
244,#0000FF,,FALSE,53.06500006,,,,,,triangle,545189,,,87,conjunctive-cpt,jspsych-conjunctive-cpt,
245,,,FALSE,55.57200003,32,1500,,,,,547696,,,87,conjunctive-cpt,jspsych-conjunctive-cpt,
246,#FF0000,,FALSE,55.67400002,,,,,,square,547798,,,87,conjunctive-cpt,jspsych-conjunctive-cpt,
247,#0000FF,FALSE,TRUE,113.7779999,,,32,,,circle,548099,,,87,conjunctive-cpt,,
248,#FFFF00,TRUE,TRUE,55.9749999,,,32,,,triangle,548099,,,87,conjunctive-cpt,,
249,,,FALSE,57.18099999,33,1500,,,,,549305,,,87,conjunctive-cpt,jspsych-conjunctive-cpt,
250,#0000FF,,FALSE,57.28200006,,,,,,square,549406,,,87,conjunctive-cpt,jspsych-conjunctive-cpt,
251,,,FALSE,58.78900003,34,1000,,,,,550913,,,87,conjunctive-cpt,jspsych-conjunctive-cpt,
252,#FF0000,,FALSE,58.8900001,,,,,,triangle,551015,,,87,conjunctive-cpt,jspsych-conjunctive-cpt,
253,,,FALSE,59.89700007,35,2000,,,,,552021,,,87,conjunctive-cpt,jspsych-conjunctive-cpt,
254,#FF0000,,FALSE,59.99900007,,,,,,triangle,552123,,,87,conjunctive-cpt,jspsych-conjunctive-cpt,
255,,,FALSE,62.01099992,36,1000,,,,,554135,,,87,conjunctive-cpt,jspsych-conjunctive-cpt,
256,#FF0000,,FALSE,62.11800003,,,,,,square,554242,,,87,conjunctive-cpt,jspsych-conjunctive-cpt,
257,#0000FF,FALSE,TRUE,120.1930001,,,32,,,circle,554515,,,87,conjunctive-cpt,,
258,#FFFF00,TRUE,TRUE,62.39100003,,,32,,,triangle,554515,,,87,conjunctive-cpt,,
259,,,FALSE,63.12100005,37,1000,,,,,555245,,,87,conjunctive-cpt,jspsych-conjunctive-cpt,
260,#FF0000,,FALSE,63.2249999,,,,,,square,555349,,,87,conjunctive-cpt,jspsych-conjunctive-cpt,
261,#0000FF,FALSE,TRUE,121.4259999,,,32,,,circle,555748,,,87,conjunctive-cpt,,
262,#FFFF00,TRUE,TRUE,63.62400007,,,32,,,triangle,555748,,,87,conjunctive-cpt,,
263,,,FALSE,64.23099995,38,1000,,,,,556355,,,87,conjunctive-cpt,jspsych-conjunctive-cpt,
264,#FFFF00,,FALSE,64.33299994,,,,,,triangle,556457,,,87,conjunctive-cpt,jspsych-conjunctive-cpt,
265,,,FALSE,65.33800006,39,2500,,,,,557462,,,87,conjunctive-cpt,jspsych-conjunctive-cpt,
266,#FF0000,,FALSE,65.44199991,,,,,,square,557566,,,87,conjunctive-cpt,jspsych-conjunctive-cpt,
267,#0000FF,FALSE,TRUE,123.5380001,,,32,,,circle,557859,,,87,conjunctive-cpt,,
268,#FFFF00,TRUE,TRUE,65.73500013,,,32,,,triangle,557859,,,87,conjunctive-cpt,,
269,,,FALSE,67.95300007,40,1500,,,,,560077,,,87,conjunctive-cpt,jspsych-conjunctive-cpt,
270,#00FF00,,FALSE,68.06800008,,,,,,triangle,560192,,,87,conjunctive-cpt,jspsych-conjunctive-cpt,
271,,,FALSE,69.57299995,41,1000,,,,,561697,,,87,conjunctive-cpt,jspsych-conjunctive-cpt,
272,#00FF00,,FALSE,69.67499995,,,,,,triangle,561799,,,87,conjunctive-cpt,jspsych-conjunctive-cpt,
273,,,FALSE,70.68099999,42,1500,,,,,562805,,,87,conjunctive-cpt,jspsych-conjunctive-cpt,
274,#00FF00,,FALSE,70.78399992,,,,,,triangle,562908,,,87,conjunctive-cpt,jspsych-conjunctive-cpt,
275,,,FALSE,72.28999996,43,1000,,,,,564414,,,87,conjunctive-cpt,jspsych-conjunctive-cpt,
276,#FF0000,,FALSE,72.39100003,,,,,,triangle,564515,,,87,conjunctive-cpt,jspsych-conjunctive-cpt,
277,,,FALSE,73.39899993,44,2000,,,,,565523,,,87,conjunctive-cpt,jspsych-conjunctive-cpt,
278,#0000FF,,FALSE,73.5,,,,,,triangle,565624,,,87,conjunctive-cpt,jspsych-conjunctive-cpt,
279,,,FALSE,75.50600004,45,2000,,,,,567630,,,87,conjunctive-cpt,jspsych-conjunctive-cpt,
280,#0000FF,,FALSE,75.61000013,,,,,,square,567734,,,87,conjunctive-cpt,jspsych-conjunctive-cpt,
281,,,FALSE,77.62100005,46,2500,,,,,569745,,,87,conjunctive-cpt,jspsych-conjunctive-cpt,
282,#FFFF00,,FALSE,77.72600007,,,,,,triangle,569850,,,87,conjunctive-cpt,jspsych-conjunctive-cpt,
283,,,FALSE,80.23200011,47,1000,,,,,572356,,,87,conjunctive-cpt,jspsych-conjunctive-cpt,
284,#FF0000,,FALSE,80.33500004,,,,,,triangle,572459,,,87,conjunctive-cpt,jspsych-conjunctive-cpt,
285,,,FALSE,81.34700012,48,1500,,,,,573471,,,87,conjunctive-cpt,jspsych-conjunctive-cpt,
286,#FF0000,,FALSE,81.45900011,,,,,,square,573583,,,87,conjunctive-cpt,jspsych-conjunctive-cpt,
287,#0000FF,FALSE,TRUE,139.602,,,32,,,circle,573923,,,87,conjunctive-cpt,,
288,#FFFF00,TRUE,TRUE,81.79900002,,,32,,,triangle,573923,,,87,conjunctive-cpt,,
289,,,FALSE,82.96499991,49,2000,,,,,575089,,,87,conjunctive-cpt,jspsych-conjunctive-cpt,
290,#FF0000,,FALSE,83.06800008,,,,,,circle,575192,,,87,conjunctive-cpt,jspsych-conjunctive-cpt,
291,,,FALSE,85.07400012,50,1500,,,,,577198,,,87,conjunctive-cpt,jspsych-conjunctive-cpt,
292,#FFFF00,,FALSE,85.17700005,,,,,,triangle,577301,,,87,conjunctive-cpt,jspsych-conjunctive-cpt,
293,,,FALSE,86.6789999,51,1000,,,,,578803,,,87,conjunctive-cpt,jspsych-conjunctive-cpt,
294,#FF0000,,FALSE,86.79299998,,,,,,triangle,578917,,,87,conjunctive-cpt,jspsych-conjunctive-cpt,
295,,,FALSE,87.79900002,52,1000,,,,,579923,,,87,conjunctive-cpt,jspsych-conjunctive-cpt,
296,#00FF00,,FALSE,87.91000009,,,,,,triangle,580034,,,87,conjunctive-cpt,jspsych-conjunctive-cpt,
297,,,FALSE,88.91600013,53,1500,,,,,581040,,,87,conjunctive-cpt,jspsych-conjunctive-cpt,
298,#FF0000,,FALSE,89.01900005,,,,,,triangle,581143,,,87,conjunctive-cpt,jspsych-conjunctive-cpt,
299,,,FALSE,90.5250001,54,2000,,,,,582649,,,87,conjunctive-cpt,jspsych-conjunctive-cpt,
300,#FF0000,,FALSE,90.62599993,,,,,,triangle,582751,,,87,conjunctive-cpt,jspsych-conjunctive-cpt,
301,,,FALSE,92.6400001,55,1000,,,,,584764,,,87,conjunctive-cpt,jspsych-conjunctive-cpt,
302,#FF0000,,FALSE,92.74399996,,,,,,triangle,584868,,,87,conjunctive-cpt,jspsych-conjunctive-cpt,
303,,,FALSE,93.75,56,1500,,,,,585874,,,87,conjunctive-cpt,jspsych-conjunctive-cpt,
304,#FF0000,,FALSE,93.852,,,,,,square,585977,,,87,conjunctive-cpt,jspsych-conjunctive-cpt,
305,#0000FF,FALSE,TRUE,152.0179999,,,32,,,circle,586339,,,87,conjunctive-cpt,,
306,#FFFF00,TRUE,TRUE,94.21499991,,,32,,,triangle,586339,,,87,conjunctive-cpt,,
307,,,FALSE,95.35899997,57,1500,,,,,587483,,,87,conjunctive-cpt,jspsych-conjunctive-cpt,
308,#00FF00,,FALSE,95.46099997,,,,,,circle,587585,,,87,conjunctive-cpt,jspsych-conjunctive-cpt,
309,,,FALSE,96.96300006,58,1000,,,,,589088,,,87,conjunctive-cpt,jspsych-conjunctive-cpt,
310,#0000FF,,FALSE,97.06900001,,,,,,triangle,589194,,,87,conjunctive-cpt,jspsych-conjunctive-cpt,
311,,,FALSE,98.07500005,59,2500,,,,,590199,,,87,conjunctive-cpt,jspsych-conjunctive-cpt,
312,#FF0000,,FALSE,98.17799997,,,,,,square,590302,,,87,conjunctive-cpt,jspsych-conjunctive-cpt,
313,#0000FF,FALSE,TRUE,156.257,,,32,,,circle,590578,,,87,conjunctive-cpt,,
314,#FFFF00,TRUE,TRUE,98.454,,,32,,,triangle,590578,,,87,conjunctive-cpt,,
315,,,FALSE,100.684,60,2500,,,,,592808,,,87,conjunctive-cpt,jspsych-conjunctive-cpt,
316,#FF0000,,FALSE,100.786,,,,,,square,592910,,,87,conjunctive-cpt,jspsych-conjunctive-cpt,
317,#0000FF,FALSE,TRUE,158.8659999,,,32,,,circle,593187,,,87,conjunctive-cpt,,
318,#FFFF00,TRUE,TRUE,101.063,,,32,,,triangle,593187,,,87,conjunctive-cpt,,
319,,,FALSE,103.2980001,61,1000,,,,,595422,,,87,conjunctive-cpt,jspsych-conjunctive-cpt,
320,#FF0000,,FALSE,103.405,,,,,,circle,595529,,,87,conjunctive-cpt,jspsych-conjunctive-cpt,
321,#0000FF,FALSE,TRUE,161.473,,,32,,,circle,595794,,,87,conjunctive-cpt,,
322,#FFFF00,FALSE,TRUE,103.6700001,,,32,,,triangle,595794,,,87,conjunctive-cpt,,
323,,,FALSE,104.4089999,62,2500,,,,,596533,,,87,conjunctive-cpt,jspsych-conjunctive-cpt,
324,#FF0000,,FALSE,104.5109999,,,,,,triangle,596635,,,87,conjunctive-cpt,jspsych-conjunctive-cpt,
325,#0000FF,FALSE,TRUE,162.546,,,32,,,circle,596867,,,87,conjunctive-cpt,,
326,#FFFF00,FALSE,TRUE,104.743,,,32,,,triangle,596867,,,87,conjunctive-cpt,,
327,,,FALSE,107.023,63,2000,,,,,599148,,,87,conjunctive-cpt,jspsych-conjunctive-cpt,
328,#FF0000,,FALSE,107.1289999,,,,,,square,599253,,,87,conjunctive-cpt,jspsych-conjunctive-cpt,
329,#0000FF,FALSE,TRUE,165.25,,,32,,,circle,599571,,,87,conjunctive-cpt,,
330,#FFFF00,TRUE,TRUE,107.447,,,32,,,triangle,599571,,,87,conjunctive-cpt,,
331,,,FALSE,109.1340001,64,1500,,,,,601258,,,87,conjunctive-cpt,jspsych-conjunctive-cpt,
332,#0000FF,,FALSE,109.237,,,,,,triangle,601361,,,87,conjunctive-cpt,jspsych-conjunctive-cpt,
333,,,FALSE,110.744,65,2000,,,,,602868,,,87,conjunctive-cpt,jspsych-conjunctive-cpt,
334,#00FF00,,FALSE,110.846,,,,,,circle,602970,,,87,conjunctive-cpt,jspsych-conjunctive-cpt,
335,,,FALSE,112.852,66,2000,,,,,604976,,,87,conjunctive-cpt,jspsych-conjunctive-cpt,
336,#FFFF00,,FALSE,112.954,,,,,,triangle,605078,,,87,conjunctive-cpt,jspsych-conjunctive-cpt,
337,,,FALSE,114.96,67,2000,,,,,607084,,,87,conjunctive-cpt,jspsych-conjunctive-cpt,
338,#0000FF,,FALSE,115.062,,,,,,triangle,607186,,,87,conjunctive-cpt,jspsych-conjunctive-cpt,
339,,,FALSE,117.0740001,68,1500,,,,,609198,,,87,conjunctive-cpt,jspsych-conjunctive-cpt,
340,#FF0000,,FALSE,117.181,,,,,,circle,609305,,,87,conjunctive-cpt,jspsych-conjunctive-cpt,
341,,,FALSE,118.6819999,69,1500,,,,,610806,,,87,conjunctive-cpt,jspsych-conjunctive-cpt,
342,#0000FF,,FALSE,118.7880001,,,,,,triangle,610912,,,87,conjunctive-cpt,jspsych-conjunctive-cpt,
343,,,FALSE,120.293,70,2000,,,,,612417,,,87,conjunctive-cpt,jspsych-conjunctive-cpt,
344,#FF0000,,FALSE,120.3970001,,,,,,square,612521,,,87,conjunctive-cpt,jspsych-conjunctive-cpt,
345,#0000FF,FALSE,TRUE,178.546,,,32,,,circle,612867,,,87,conjunctive-cpt,,
346,#FFFF00,TRUE,TRUE,120.743,,,32,,,triangle,612867,,,87,conjunctive-cpt,,
347,,,FALSE,122.4070001,71,2500,,,,,614531,,,87,conjunctive-cpt,jspsych-conjunctive-cpt,
348,#FF0000,,FALSE,122.52,,,,,,square,614644,,,87,conjunctive-cpt,jspsych-conjunctive-cpt,
349,#0000FF,FALSE,TRUE,180.658,,,32,,,circle,614979,,,87,conjunctive-cpt,,
350,#FFFF00,TRUE,TRUE,122.855,,,32,,,triangle,614979,,,87,conjunctive-cpt,,
351,,,FALSE,125.027,72,2500,,,,,617151,,,87,conjunctive-cpt,jspsych-conjunctive-cpt,
352,#FF0000,,FALSE,125.131,,,,,,square,617255,,,87,conjunctive-cpt,jspsych-conjunctive-cpt,
353,#0000FF,FALSE,TRUE,183.25,,,32,,,circle,617571,,,87,conjunctive-cpt,,
354,#FFFF00,TRUE,TRUE,125.447,,,32,,,triangle,617571,,,87,conjunctive-cpt,,
355,,,FALSE,127.6430001,73,2500,,,,,619767,,,87,conjunctive-cpt,jspsych-conjunctive-cpt,
356,#FF0000,,FALSE,127.747,,,,,,square,619871,,,87,conjunctive-cpt,jspsych-conjunctive-cpt,
357,#0000FF,FALSE,TRUE,185.6329999,,,32,,,circle,619954,,,87,conjunctive-cpt,,
358,#FFFF00,TRUE,TRUE,127.8299999,,,32,,,triangle,619954,,,87,conjunctive-cpt,,
359,#0000FF,FALSE,TRUE,185.938,,,32,,,circle,620259,,,87,conjunctive-cpt,,
360,#FFFF00,TRUE,TRUE,128.135,,,32,,,triangle,620259,,,87,conjunctive-cpt,,
361,#0000FF,FALSE,TRUE,186.53,,,32,,,circle,620851,,,87,conjunctive-cpt,,
362,#FFFF00,TRUE,TRUE,128.727,,,32,,,triangle,620851,,,87,conjunctive-cpt,,
363,#0000FF,FALSE,TRUE,186.8659999,,,32,,,circle,621187,,,87,conjunctive-cpt,,
364,#FFFF00,TRUE,TRUE,129.063,,,32,,,triangle,621187,,,87,conjunctive-cpt,,
365,#0000FF,FALSE,TRUE,187.0899999,,,32,,,circle,621411,,,87,conjunctive-cpt,,
366,#FFFF00,TRUE,TRUE,129.2869999,,,32,,,triangle,621411,,,87,conjunctive-cpt,,
367,#0000FF,FALSE,TRUE,187.3770001,,,32,,,circle,621698,,,87,conjunctive-cpt,,
368,#FFFF00,TRUE,TRUE,129.5740001,,,32,,,triangle,621698,,,87,conjunctive-cpt,,
369,#0000FF,FALSE,TRUE,187.905,,,32,,,circle,622226,,,87,conjunctive-cpt,,
370,#FFFF00,TRUE,TRUE,130.102,,,32,,,triangle,622226,,,87,conjunctive-cpt,,
371,,,FALSE,130.2539999,74,1000,,,,,622378,,,87,conjunctive-cpt,jspsych-conjunctive-cpt,
372,#00FF00,,FALSE,130.3559999,,,,,,square,622480,,,87,conjunctive-cpt,jspsych-conjunctive-cpt,
373,,,FALSE,131.3789999,75,2000,,,,,623503,,,87,conjunctive-cpt,jspsych-conjunctive-cpt,
374,#00FF00,,FALSE,131.4820001,,,,,,circle,623606,,,87,conjunctive-cpt,jspsych-conjunctive-cpt,
375,,,FALSE,133.487,76,2000,,,,,625611,,,87,conjunctive-cpt,jspsych-conjunctive-cpt,
376,#00FF00,,FALSE,133.5899999,,,,,,circle,625714,,,87,conjunctive-cpt,jspsych-conjunctive-cpt,
377,,,FALSE,135.596,77,2500,,,,,627720,,,87,conjunctive-cpt,jspsych-conjunctive-cpt,
378,#00FF00,,FALSE,135.698,,,,,,square,627822,,,87,conjunctive-cpt,jspsych-conjunctive-cpt,
379,,,FALSE,138.21,78,1000,,,,,630334,,,87,conjunctive-cpt,jspsych-conjunctive-cpt,
380,#FF0000,,FALSE,138.316,,,,,,square,630440,,,87,conjunctive-cpt,jspsych-conjunctive-cpt,
381,,,FALSE,139.3210001,79,1500,,,,,631445,,,87,conjunctive-cpt,jspsych-conjunctive-cpt,
382,#FF0000,,FALSE,139.424,,,,,,square,631548,,,87,conjunctive-cpt,jspsych-conjunctive-cpt,
383,#0000FF,FALSE,TRUE,197.474,,,32,,,circle,631795,,,87,conjunctive-cpt,,
384,#FFFF00,TRUE,TRUE,139.671,,,32,,,triangle,631795,,,87,conjunctive-cpt,,
385,,,FALSE,140.9360001,80,1000,,,,,633060,,,87,conjunctive-cpt,jspsych-conjunctive-cpt,
386,#00FF00,,FALSE,141.0410001,,,,,,square,633165,,,87,conjunctive-cpt,jspsych-conjunctive-cpt,
387,,,FALSE,142.046,81,2000,,,,,634170,,,87,conjunctive-cpt,jspsych-conjunctive-cpt,
388,#FF0000,,FALSE,142.1489999,,,,,,square,634273,,,87,conjunctive-cpt,jspsych-conjunctive-cpt,
389,#0000FF,FALSE,TRUE,200.273,,,32,,,circle,634594,,,87,conjunctive-cpt,,
390,#FFFF00,TRUE,TRUE,142.47,,,32,,,triangle,634594,,,87,conjunctive-cpt,,
391,,,FALSE,144.155,82,1500,,,,,636279,,,87,conjunctive-cpt,jspsych-conjunctive-cpt,
392,#0000FF,,FALSE,144.257,,,,,,triangle,636381,,,87,conjunctive-cpt,jspsych-conjunctive-cpt,
393,,,FALSE,145.763,83,1000,,,,,637887,,,87,conjunctive-cpt,jspsych-conjunctive-cpt,
394,#00FF00,,FALSE,145.8659999,,,,,,triangle,637990,,,87,conjunctive-cpt,jspsych-conjunctive-cpt,
395,,,FALSE,146.878,84,1500,,,,,639002,,,87,conjunctive-cpt,jspsych-conjunctive-cpt,
396,#FF0000,,FALSE,146.9909999,,,,,,square,639115,,,87,conjunctive-cpt,jspsych-conjunctive-cpt,
397,#0000FF,FALSE,TRUE,205.1210001,,,32,,,circle,639442,,,87,conjunctive-cpt,,
398,#FFFF00,TRUE,TRUE,147.3180001,,,32,,,triangle,639442,,,87,conjunctive-cpt,,
399,,,FALSE,148.4979999,85,2500,,,,,640622,,,87,conjunctive-cpt,jspsych-conjunctive-cpt,
400,#FF0000,,FALSE,148.5999999,,,,,,square,640724,,,87,conjunctive-cpt,jspsych-conjunctive-cpt,
401,#0000FF,FALSE,TRUE,206.625,,,32,,,circle,640946,,,87,conjunctive-cpt,,
402,#FFFF00,TRUE,TRUE,148.822,,,32,,,triangle,640946,,,87,conjunctive-cpt,,
403,,,FALSE,151.1110001,86,1000,,,,,643235,,,87,conjunctive-cpt,jspsych-conjunctive-cpt,
404,#00FF00,,FALSE,151.2149999,,,,,,triangle,643339,,,87,conjunctive-cpt,jspsych-conjunctive-cpt,
405,,,FALSE,152.2220001,87,2500,,,,,644346,,,87,conjunctive-cpt,jspsych-conjunctive-cpt,
406,#0000FF,,FALSE,152.325,,,,,,square,644449,,,87,conjunctive-cpt,jspsych-conjunctive-cpt,
407,#0000FF,FALSE,TRUE,210.339,,,32,,,circle,644660,,,87,conjunctive-cpt,,
408,#FFFF00,FALSE,TRUE,152.536,,,32,,,triangle,644660,,,87,conjunctive-cpt,,
409,,,FALSE,154.8310001,88,1500,,,,,646955,,,87,conjunctive-cpt,jspsych-conjunctive-cpt,
410,#FFFF00,,FALSE,154.9460001,,,,,,square,647070,,,87,conjunctive-cpt,jspsych-conjunctive-cpt,
411,,,FALSE,156.4460001,89,2500,,,,,648570,,,87,conjunctive-cpt,jspsych-conjunctive-cpt,
412,#FFFF00,,FALSE,156.55,,,,,,square,648674,,,87,conjunctive-cpt,jspsych-conjunctive-cpt,
413,,,FALSE,159.056,90,1500,,,,,651180,,,87,conjunctive-cpt,jspsych-conjunctive-cpt,
414,#0000FF,,FALSE,159.1589999,,,,,,circle,651283,,,87,conjunctive-cpt,jspsych-conjunctive-cpt,
415,,,FALSE,160.664,91,2500,,,,,652788,,,87,conjunctive-cpt,jspsych-conjunctive-cpt,
416,#0000FF,,FALSE,160.7680001,,,,,,triangle,652892,,,87,conjunctive-cpt,jspsych-conjunctive-cpt,
417,,,FALSE,163.2780001,92,2000,,,,,655402,,,87,conjunctive-cpt,jspsych-conjunctive-cpt,
418,#FF0000,,FALSE,163.3900001,,,,,,triangle,655514,,,87,conjunctive-cpt,jspsych-conjunctive-cpt,
419,,,FALSE,165.405,93,1000,,,,,657529,,,87,conjunctive-cpt,jspsych-conjunctive-cpt,
420,#FFFF00,,FALSE,165.5090001,,,,,,triangle,657633,,,87,conjunctive-cpt,jspsych-conjunctive-cpt,
421,,,FALSE,166.5220001,94,2500,,,,,658646,,,87,conjunctive-cpt,jspsych-conjunctive-cpt,
422,#00FF00,,FALSE,166.6259999,,,,,,square,658750,,,87,conjunctive-cpt,jspsych-conjunctive-cpt,
423,,,FALSE,169.131,95,1500,,,,,661255,,,87,conjunctive-cpt,jspsych-conjunctive-cpt,
424,#FF0000,,FALSE,169.2350001,,,,,,square,661359,,,87,conjunctive-cpt,jspsych-conjunctive-cpt,
425,#0000FF,FALSE,TRUE,227.3299999,,,32,,,circle,661651,,,87,conjunctive-cpt,,
426,#FFFF00,TRUE,TRUE,169.527,,,32,,,triangle,661651,,,87,conjunctive-cpt,,
427,,,FALSE,170.74,96,1000,,,,,662864,,,87,conjunctive-cpt,jspsych-conjunctive-cpt,
428,#FF0000,,FALSE,170.8429999,,,,,,square,662967,,,87,conjunctive-cpt,jspsych-conjunctive-cpt,
429,#0000FF,FALSE,TRUE,229.154,,,32,,,circle,663475,,,87,conjunctive-cpt,,
430,#FFFF00,TRUE,TRUE,171.3510001,,,32,,,triangle,663475,,,87,conjunctive-cpt,,
431,,,FALSE,171.855,97,1000,,,,,663979,,,87,conjunctive-cpt,jspsych-conjunctive-cpt,
432,#FF0000,,FALSE,171.9690001,,,,,,square,664093,,,87,conjunctive-cpt,jspsych-conjunctive-cpt,
433,#0000FF,FALSE,TRUE,230.1140001,,,32,,,circle,664436,,,87,conjunctive-cpt,,
434,#FFFF00,TRUE,TRUE,172.312,,,32,,,triangle,664436,,,87,conjunctive-cpt,,
435,,,FALSE,172.974,98,2000,,,,,665098,,,87,conjunctive-cpt,jspsych-conjunctive-cpt,
436,#FF0000,,FALSE,173.076,,,,,,triangle,665200,,,87,conjunctive-cpt,jspsych-conjunctive-cpt,
437,#0000FF,FALSE,TRUE,231.122,,,32,,,circle,665443,,,87,conjunctive-cpt,,
438,#FFFF00,FALSE,TRUE,173.319,,,32,,,triangle,665443,,,87,conjunctive-cpt,,
439,,,FALSE,175.082,99,1500,,,,,667206,,,87,conjunctive-cpt,jspsych-conjunctive-cpt,
440,#FF0000,,FALSE,175.1849999,,,,,,triangle,667309,,,87,conjunctive-cpt,jspsych-conjunctive-cpt,
441,,,FALSE,176.697,100,1000,,,,,668821,,,87,conjunctive-cpt,jspsych-conjunctive-cpt,
442,#FF0000,,FALSE,176.8110001,,,,,,triangle,668935,,,87,conjunctive-cpt,jspsych-conjunctive-cpt,
443,,,FALSE,177.816,101,1500,,,,,669940,,,87,conjunctive-cpt,jspsych-conjunctive-cpt,
444,#FF0000,,FALSE,177.9189999,,,,,,square,670043,,,87,conjunctive-cpt,jspsych-conjunctive-cpt,
445,#0000FF,FALSE,TRUE,236.145,,,32,,,circle,670466,,,87,conjunctive-cpt,,
446,#FFFF00,TRUE,TRUE,178.342,,,32,,,triangle,670466,,,87,conjunctive-cpt,,
447,,,FALSE,179.428,102,2000,,,,,671552,,,87,conjunctive-cpt,jspsych-conjunctive-cpt,
448,#FF0000,,FALSE,179.543,,,,,,circle,671668,,,87,conjunctive-cpt,jspsych-conjunctive-cpt,
449,,,FALSE,181.5550001,103,2000,,,,,673679,,,87,conjunctive-cpt,jspsych-conjunctive-cpt,
450,#FF0000,,FALSE,181.661,,,,,,square,673785,,,87,conjunctive-cpt,jspsych-conjunctive-cpt,
451,#0000FF,FALSE,TRUE,239.6819999,,,32,,,circle,674003,,,87,conjunctive-cpt,,
452,#FFFF00,TRUE,TRUE,181.8789999,,,32,,,triangle,674003,,,87,conjunctive-cpt,,
453,,,FALSE,183.6670001,104,1000,,,,,675791,,,87,conjunctive-cpt,jspsych-conjunctive-cpt,
454,#FF0000,,FALSE,183.7680001,,,,,,square,675893,,,87,conjunctive-cpt,jspsych-conjunctive-cpt,
455,#0000FF,FALSE,TRUE,241.7939999,,,32,,,circle,676115,,,87,conjunctive-cpt,,
456,#FFFF00,TRUE,TRUE,183.9909999,,,32,,,triangle,676115,,,87,conjunctive-cpt,,
457,,,FALSE,184.7739999,105,1000,,,,,676898,,,87,conjunctive-cpt,jspsych-conjunctive-cpt,
458,#FF0000,,FALSE,184.8800001,,,,,,square,677004,,,87,conjunctive-cpt,jspsych-conjunctive-cpt,
459,#0000FF,FALSE,TRUE,242.9130001,,,32,,,circle,677234,,,87,conjunctive-cpt,,
460,#FFFF00,TRUE,TRUE,185.1110001,,,32,,,triangle,677235,,,87,conjunctive-cpt,,
461,,,FALSE,185.8830001,106,2000,,,,,678007,,,87,conjunctive-cpt,jspsych-conjunctive-cpt,
462,#00FF00,,FALSE,185.9860001,,,,,,circle,678110,,,87,conjunctive-cpt,jspsych-conjunctive-cpt,
463,,,FALSE,187.993,107,2000,,,,,680117,,,87,conjunctive-cpt,jspsych-conjunctive-cpt,
464,#00FF00,,FALSE,188.095,,,,,,square,680219,,,87,conjunctive-cpt,jspsych-conjunctive-cpt,
465,,,FALSE,190.1010001,108,1000,,,,,682225,,,87,conjunctive-cpt,jspsych-conjunctive-cpt,
466,#FF0000,,FALSE,190.2030001,,,,,,triangle,682327,,,87,conjunctive-cpt,jspsych-conjunctive-cpt,
467,,,FALSE,191.2160001,109,1000,,,,,683340,,,87,conjunctive-cpt,jspsych-conjunctive-cpt,
468,#0000FF,,FALSE,191.319,,,,,,square,683444,,,87,conjunctive-cpt,jspsych-conjunctive-cpt,
469,,,FALSE,192.326,110,1500,,,,,684450,,,87,conjunctive-cpt,jspsych-conjunctive-cpt,
470,#0000FF,,FALSE,192.4289999,,,,,,triangle,684553,,,87,conjunctive-cpt,jspsych-conjunctive-cpt,
471,,,FALSE,193.934,111,1000,,,,,686058,,,87,conjunctive-cpt,jspsych-conjunctive-cpt,
472,#FF0000,,FALSE,194.0369999,,,,,,square,686161,,,87,conjunctive-cpt,jspsych-conjunctive-cpt,
473,#0000FF,FALSE,TRUE,252.1459999,,,32,,,circle,686467,,,87,conjunctive-cpt,,
474,#FFFF00,TRUE,TRUE,194.3429999,,,32,,,triangle,686467,,,87,conjunctive-cpt,,
475,,,FALSE,195.0439999,112,2500,,,,,687168,,,87,conjunctive-cpt,jspsych-conjunctive-cpt,
476,#FF0000,,FALSE,195.145,,,,,,square,687269,,,87,conjunctive-cpt,jspsych-conjunctive-cpt,
477,#0000FF,FALSE,TRUE,253.3139999,,,32,,,circle,687635,,,87,conjunctive-cpt,,
478,#FFFF00,TRUE,TRUE,195.5109999,,,32,,,triangle,687635,,,87,conjunctive-cpt,,
479,,,FALSE,197.6570001,113,2500,,,,,689781,,,87,conjunctive-cpt,jspsych-conjunctive-cpt,
480,#FF0000,,FALSE,197.7720001,,,,,,square,689896,,,87,conjunctive-cpt,jspsych-conjunctive-cpt,
481,#0000FF,FALSE,TRUE,255.826,,,32,,,circle,690147,,,87,conjunctive-cpt,,
482,#FFFF00,TRUE,TRUE,198.023,,,32,,,triangle,690147,,,87,conjunctive-cpt,,
483,,,FALSE,200.276,114,2500,,,,,692400,,,87,conjunctive-cpt,jspsych-conjunctive-cpt,
484,#00FF00,,FALSE,200.3800001,,,,,,triangle,692504,,,87,conjunctive-cpt,jspsych-conjunctive-cpt,
485,,,FALSE,202.8900001,115,1000,,,,,695014,,,87,conjunctive-cpt,jspsych-conjunctive-cpt,
486,#FFFF00,,FALSE,202.9960001,,,,,,square,695120,,,87,conjunctive-cpt,jspsych-conjunctive-cpt,
487,,,FALSE,204.0009999,116,1000,,,,,696125,,,87,conjunctive-cpt,jspsych-conjunctive-cpt,
488,#FF0000,,FALSE,204.1040001,,,,,,triangle,696228,,,87,conjunctive-cpt,jspsych-conjunctive-cpt,
489,,,FALSE,205.1100001,117,2500,,,,,697235,,,87,conjunctive-cpt,jspsych-conjunctive-cpt,
490,#FFFF00,,FALSE,205.2130001,,,,,,triangle,697337,,,87,conjunctive-cpt,jspsych-conjunctive-cpt,
491,,,FALSE,207.7160001,118,1500,,,,,699840,,,87,conjunctive-cpt,jspsych-conjunctive-cpt,
492,#FF0000,,FALSE,207.822,,,,,,square,699946,,,87,conjunctive-cpt,jspsych-conjunctive-cpt,
493,#0000FF,FALSE,TRUE,265.9059999,,,32,,,circle,700228,,,87,conjunctive-cpt,,
494,#FFFF00,TRUE,TRUE,208.1040001,,,32,,,triangle,700228,,,87,conjunctive-cpt,,
495,,,FALSE,209.3280001,119,1000,,,,,701452,,,87,conjunctive-cpt,jspsych-conjunctive-cpt,
496,#FF0000,,FALSE,209.4300001,,,,,,square,701554,,,87,conjunctive-cpt,jspsych-conjunctive-cpt,
497,#0000FF,FALSE,TRUE,267.569,,,32,,,circle,701891,,,87,conjunctive-cpt,,
498,#FFFF00,TRUE,TRUE,209.767,,,32,,,triangle,701891,,,87,conjunctive-cpt,,
499,,,FALSE,210.437,120,2000,,,,,702561,,,87,conjunctive-cpt,jspsych-conjunctive-cpt,
500,#FF0000,,FALSE,210.5380001,,,,,,square,702662,,,87,conjunctive-cpt,jspsych-conjunctive-cpt,
501,#0000FF,FALSE,TRUE,268.7060001,,,32,,,circle,703027,,,87,conjunctive-cpt,,
502,#FFFF00,TRUE,TRUE,210.9030001,,,32,,,triangle,703027,,,87,conjunctive-cpt,,
503,,,FALSE,212.5510001,121,2000,,,,,704675,,,87,conjunctive-cpt,jspsych-conjunctive-cpt,
504,#FF0000,,FALSE,212.655,,,,,,square,704779,,,87,conjunctive-cpt,jspsych-conjunctive-cpt,
505,#0000FF,FALSE,TRUE,270.721,,,32,,,circle,705042,,,87,conjunctive-cpt,,
506,#FFFF00,TRUE,TRUE,212.918,,,32,,,triangle,705042,,,87,conjunctive-cpt,,
507,,,FALSE,214.6619999,122,1000,,,,,706786,,,87,conjunctive-cpt,jspsych-conjunctive-cpt,
508,#FF0000,,FALSE,214.7639999,,,,,,triangle,706888,,,87,conjunctive-cpt,jspsych-conjunctive-cpt,
509,#0000FF,FALSE,TRUE,272.865,,,32,,,circle,707186,,,87,conjunctive-cpt,,
510,#FFFF00,FALSE,TRUE,215.062,,,32,,,triangle,707186,,,87,conjunctive-cpt,,
511,,,FALSE,215.77,123,2000,,,,,707894,,,87,conjunctive-cpt,jspsych-conjunctive-cpt,
512,#FF0000,,FALSE,215.8710001,,,,,,square,707995,,,87,conjunctive-cpt,jspsych-conjunctive-cpt,
513,#0000FF,FALSE,TRUE,273.921,,,32,,,circle,708242,,,87,conjunctive-cpt,,
514,#FFFF00,TRUE,TRUE,216.118,,,32,,,triangle,708242,,,87,conjunctive-cpt,,
515,,,FALSE,217.8840001,124,2500,,,,,710008,,,87,conjunctive-cpt,jspsych-conjunctive-cpt,
516,#FF0000,,FALSE,217.997,,,,,,square,710121,,,87,conjunctive-cpt,jspsych-conjunctive-cpt,
517,#0000FF,FALSE,TRUE,276.0339999,,,32,,,circle,710355,,,87,conjunctive-cpt,,
518,#FFFF00,TRUE,TRUE,218.2309999,,,32,,,triangle,710355,,,87,conjunctive-cpt,,
519,,,FALSE,220.503,125,1000,,,,,712627,,,87,conjunctive-cpt,jspsych-conjunctive-cpt,
520,#00FF00,,FALSE,220.605,,,,,,circle,712729,,,87,conjunctive-cpt,jspsych-conjunctive-cpt,
521,,,FALSE,221.618,126,2000,,,,,713742,,,87,conjunctive-cpt,jspsych-conjunctive-cpt,
522,#FF0000,,FALSE,221.723,,,,,,square,713847,,,87,conjunctive-cpt,jspsych-conjunctive-cpt,
523,,,FALSE,223.7279999,127,1500,,,,,715852,,,87,conjunctive-cpt,jspsych-conjunctive-cpt,
524,#FFFF00,,FALSE,223.832,,,,,,square,715956,,,87,conjunctive-cpt,jspsych-conjunctive-cpt,
525,,,FALSE,225.3380001,128,2500,,,,,717462,,,87,conjunctive-cpt,jspsych-conjunctive-cpt,
526,#FF0000,,FALSE,225.4400001,,,,,,square,717564,,,87,conjunctive-cpt,jspsych-conjunctive-cpt,
527,#0000FF,FALSE,TRUE,283.618,,,32,,,circle,717939,,,87,conjunctive-cpt,,
528,#FFFF00,TRUE,TRUE,225.8150001,,,32,,,triangle,717939,,,87,conjunctive-cpt,,
529,,,FALSE,227.9519999,129,1500,,,,,720076,,,87,conjunctive-cpt,jspsych-conjunctive-cpt,
530,#FF0000,,FALSE,228.056,,,,,,square,720180,,,87,conjunctive-cpt,jspsych-conjunctive-cpt,
531,#0000FF,FALSE,TRUE,286.194,,,32,,,circle,720515,,,87,conjunctive-cpt,,
532,#FFFF00,TRUE,TRUE,228.392,,,32,,,triangle,720516,,,87,conjunctive-cpt,,
533,#0000FF,FALSE,TRUE,286.4330001,,,32,,,circle,720754,,,87,conjunctive-cpt,,
534,#FFFF00,TRUE,TRUE,228.6300001,,,32,,,triangle,720754,,,87,conjunctive-cpt,,
535,,,FALSE,229.562,130,2000,,,,,721686,,,87,conjunctive-cpt,jspsych-conjunctive-cpt,
536,#0000FF,FALSE,TRUE,287.425,,,32,,,circle,721746,,,87,conjunctive-cpt,,
537,#FFFF00,TRUE,TRUE,229.622,,,32,,,triangle,721746,,,87,conjunctive-cpt,,
538,#FF0000,,FALSE,229.665,,,,,,square,721789,,,87,conjunctive-cpt,jspsych-conjunctive-cpt,
539,#0000FF,FALSE,TRUE,287.9059999,,,32,,,circle,722227,,,87,conjunctive-cpt,,
540,#FFFF00,TRUE,TRUE,230.1029999,,,32,,,triangle,722227,,,87,conjunctive-cpt,,
541,#0000FF,FALSE,TRUE,288.4170001,,,32,,,circle,722738,,,87,conjunctive-cpt,,
542,#FFFF00,TRUE,TRUE,230.6140001,,,32,,,triangle,722738,,,87,conjunctive-cpt,,
543,#0000FF,FALSE,TRUE,288.8339999,,,32,,,circle,723155,,,87,conjunctive-cpt,,
544,#FFFF00,TRUE,TRUE,231.0309999,,,32,,,triangle,723155,,,87,conjunctive-cpt,,
545,#0000FF,FALSE,TRUE,289.2820001,,,32,,,circle,723603,,,87,conjunctive-cpt,,
546,#FFFF00,TRUE,TRUE,231.4790001,,,32,,,triangle,723603,,,87,conjunctive-cpt,,
547,,,FALSE,231.677,131,2000,,,,,723801,,,87,conjunctive-cpt,jspsych-conjunctive-cpt,
548,#FFFF00,,FALSE,231.7910001,,,,,,triangle,723915,,,87,conjunctive-cpt,jspsych-conjunctive-cpt,
549,#0000FF,FALSE,TRUE,289.73,,,32,,,circle,724051,,,87,conjunctive-cpt,,
550,#FFFF00,FALSE,TRUE,231.927,,,32,,,triangle,724051,,,87,conjunctive-cpt,,
551,,,FALSE,233.796,132,2000,,,,,725920,,,87,conjunctive-cpt,jspsych-conjunctive-cpt,
552,#0000FF,,FALSE,233.8989999,,,,,,circle,726023,,,87,conjunctive-cpt,jspsych-conjunctive-cpt,
553,,,FALSE,235.905,133,2000,,,,,728029,,,87,conjunctive-cpt,jspsych-conjunctive-cpt,
554,#00FF00,,FALSE,236.0080001,,,,,,square,728132,,,87,conjunctive-cpt,jspsych-conjunctive-cpt,
555,,,FALSE,238.02,134,2500,,,,,730144,,,87,conjunctive-cpt,jspsych-conjunctive-cpt,
556,#FF0000,,FALSE,238.1330001,,,,,,square,730257,,,87,conjunctive-cpt,jspsych-conjunctive-cpt,
557,#0000FF,FALSE,TRUE,296.45,,,32,,,circle,730771,,,87,conjunctive-cpt,,
558,#FFFF00,TRUE,TRUE,238.6470001,,,32,,,triangle,730771,,,87,conjunctive-cpt,,
559,,,FALSE,240.6389999,135,2000,,,,,732763,,,87,conjunctive-cpt,jspsych-conjunctive-cpt,
560,#FFFF00,,FALSE,240.7409999,,,,,,square,732865,,,87,conjunctive-cpt,jspsych-conjunctive-cpt,
561,#0000FF,FALSE,TRUE,299.122,,,32,,,circle,733443,,,87,conjunctive-cpt,,
562,#FFFF00,FALSE,TRUE,241.319,,,32,,,triangle,733443,,,87,conjunctive-cpt,,
563,,,FALSE,242.753,136,2000,,,,,734877,,,87,conjunctive-cpt,jspsych-conjunctive-cpt,
564,#FF0000,,FALSE,242.859,,,,,,square,734983,,,87,conjunctive-cpt,jspsych-conjunctive-cpt,
565,#0000FF,FALSE,TRUE,301.4100001,,,32,,,circle,735731,,,87,conjunctive-cpt,,
566,#FFFF00,TRUE,TRUE,243.6070001,,,32,,,triangle,735731,,,87,conjunctive-cpt,,
567,,,FALSE,244.8640001,137,1500,,,,,736988,,,87,conjunctive-cpt,jspsych-conjunctive-cpt,
568,#FF0000,,FALSE,244.967,,,,,,square,737091,,,87,conjunctive-cpt,jspsych-conjunctive-cpt,
569,#0000FF,FALSE,TRUE,303.026,,,32,,,circle,737347,,,87,conjunctive-cpt,,
570,#FFFF00,TRUE,TRUE,245.223,,,32,,,triangle,737347,,,87,conjunctive-cpt,,
571,,,FALSE,246.4779999,138,1500,,,,,738602,,,87,conjunctive-cpt,jspsych-conjunctive-cpt,
572,#FFFF00,,FALSE,246.5829999,,,,,,triangle,738707,,,87,conjunctive-cpt,jspsych-conjunctive-cpt,
573,,,FALSE,248.089,139,2000,,,,,740213,,,87,conjunctive-cpt,jspsych-conjunctive-cpt,
574,#FFFF00,,FALSE,248.1919999,,,,,,square,740316,,,87,conjunctive-cpt,jspsych-conjunctive-cpt,
575,,,FALSE,250.198,140,2000,,,,,742322,,,87,conjunctive-cpt,jspsych-conjunctive-cpt,
576,#0000FF,,FALSE,250.3,,,,,,square,742424,,,87,conjunctive-cpt,jspsych-conjunctive-cpt,
577,#0000FF,FALSE,TRUE,308.658,,,32,,,circle,742979,,,87,conjunctive-cpt,,
578,#FFFF00,FALSE,TRUE,250.855,,,32,,,triangle,742979,,,87,conjunctive-cpt,,
579,,,FALSE,252.312,141,1500,,,,,744436,,,87,conjunctive-cpt,jspsych-conjunctive-cpt,
580,#FF0000,,FALSE,252.4189999,,,,,,square,744543,,,87,conjunctive-cpt,jspsych-conjunctive-cpt,
581,#0000FF,FALSE,TRUE,310.53,,,32,,,circle,744851,,,87,conjunctive-cpt,,
582,#FFFF00,TRUE,TRUE,252.727,,,32,,,triangle,744851,,,87,conjunctive-cpt,,
583,,,FALSE,253.9319999,142,2500,,,,,746056,,,87,conjunctive-cpt,jspsych-conjunctive-cpt,
584,#FF0000,,FALSE,254.0339999,,,,,,square,746158,,,87,conjunctive-cpt,jspsych-conjunctive-cpt,
585,#0000FF,FALSE,TRUE,312.1129999,,,32,,,circle,746434,,,87,conjunctive-cpt,,
586,#FFFF00,TRUE,TRUE,254.3099999,,,32,,,triangle,746434,,,87,conjunctive-cpt,,
587,,,FALSE,256.5450001,143,2000,,,,,748669,,,87,conjunctive-cpt,jspsych-conjunctive-cpt,
588,#FFFF00,,FALSE,256.6500001,,,,,,triangle,748774,,,87,conjunctive-cpt,jspsych-conjunctive-cpt,
589,,,FALSE,258.6570001,144,2500,,,,,750781,,,87,conjunctive-cpt,jspsych-conjunctive-cpt,
590,#0000FF,,FALSE,258.76,,,,,,circle,750884,,,87,conjunctive-cpt,jspsych-conjunctive-cpt,
591,,,FALSE,261.2709999,145,1500,,,,,753396,,,87,conjunctive-cpt,jspsych-conjunctive-cpt,
592,#0000FF,,FALSE,261.3840001,,,,,,square,753508,,,87,conjunctive-cpt,jspsych-conjunctive-cpt,
593,,,FALSE,262.8900001,146,2500,,,,,755014,,,87,conjunctive-cpt,jspsych-conjunctive-cpt,
594,#FF0000,,FALSE,262.993,,,,,,square,755118,,,87,conjunctive-cpt,jspsych-conjunctive-cpt,
595,#0000FF,FALSE,TRUE,321.2179999,,,32,,,circle,755539,,,87,conjunctive-cpt,,
596,#FFFF00,TRUE,TRUE,263.415,,,32,,,triangle,755539,,,87,conjunctive-cpt,,
597,,,FALSE,265.4990001,147,1000,,,,,757623,,,87,conjunctive-cpt,jspsych-conjunctive-cpt,
598,#FFFF00,,FALSE,265.602,,,,,,triangle,757726,,,87,conjunctive-cpt,jspsych-conjunctive-cpt,
599,,,FALSE,266.6140001,148,1500,,,,,758738,,,87,conjunctive-cpt,jspsych-conjunctive-cpt,
600,#FF0000,,FALSE,266.7260001,,,,,,circle,758850,,,87,conjunctive-cpt,jspsych-conjunctive-cpt,
601,,,FALSE,268.233,149,1000,,,,,760357,,,87,conjunctive-cpt,jspsych-conjunctive-cpt,
602,#FF0000,,FALSE,268.335,,,,,,circle,760459,,,87,conjunctive-cpt,jspsych-conjunctive-cpt,
603,,,FALSE,269.3499999,150,2000,,,,,761474,,,87,conjunctive-cpt,jspsych-conjunctive-cpt,
604,#00FF00,,FALSE,269.4519999,,,,,,triangle,761576,,,87,conjunctive-cpt,jspsych-conjunctive-cpt,
605,#0000FF,FALSE,TRUE,328.1930001,,,32,,,circle,762514,,,87,conjunctive-cpt,,
606,#FFFF00,FALSE,TRUE,270.3900001,,,32,,,triangle,762514,,,87,conjunctive-cpt,,
607,,,FALSE,271.464,151,2500,,,,,763588,,,87,conjunctive-cpt,jspsych-conjunctive-cpt,
608,#00FF00,,FALSE,271.5699999,,,,,,square,763694,,,87,conjunctive-cpt,jspsych-conjunctive-cpt,
609,,,FALSE,274.075,152,2000,,,,,766199,,,87,conjunctive-cpt,jspsych-conjunctive-cpt,
610,#00FF00,,FALSE,274.178,,,,,,triangle,766302,,,87,conjunctive-cpt,jspsych-conjunctive-cpt,
611,,,FALSE,276.1900001,153,2500,,,,,768314,,,87,conjunctive-cpt,jspsych-conjunctive-cpt,
612,#FF0000,,FALSE,276.2950001,,,,,,triangle,768419,,,87,conjunctive-cpt,jspsych-conjunctive-cpt,
613,,,FALSE,278.8,154,1000,,,,,770924,,,87,conjunctive-cpt,jspsych-conjunctive-cpt,
614,#0000FF,,FALSE,278.9030001,,,,,,circle,771027,,,87,conjunctive-cpt,jspsych-conjunctive-cpt,
615,,,FALSE,279.9089999,155,1000,,,,,772033,,,87,conjunctive-cpt,jspsych-conjunctive-cpt,
616,#FF0000,,FALSE,280.0109999,,,,,,circle,772135,,,87,conjunctive-cpt,jspsych-conjunctive-cpt,
617,,,FALSE,281.0180001,156,2000,,,,,773142,,,87,conjunctive-cpt,jspsych-conjunctive-cpt,
618,#FFFF00,,FALSE,281.1210001,,,,,,triangle,773245,,,87,conjunctive-cpt,jspsych-conjunctive-cpt,
619,,,FALSE,283.132,157,2000,,,,,775256,,,87,conjunctive-cpt,jspsych-conjunctive-cpt,
620,#FFFF00,,FALSE,283.2379999,,,,,,circle,775362,,,87,conjunctive-cpt,jspsych-conjunctive-cpt,
621,,,FALSE,285.2420001,158,1500,,,,,777366,,,87,conjunctive-cpt,jspsych-conjunctive-cpt,
622,#00FF00,,FALSE,285.346,,,,,,triangle,777470,,,87,conjunctive-cpt,jspsych-conjunctive-cpt,
623,,,FALSE,286.8559999,159,1500,,,,,778980,,,87,conjunctive-cpt,jspsych-conjunctive-cpt,
624,#FFFF00,,FALSE,286.9620001,,,,,,square,779086,,,87,conjunctive-cpt,jspsych-conjunctive-cpt,
625,,,FALSE,288.4679999,160,1000,,,,,780592,,,87,conjunctive-cpt,jspsych-conjunctive-cpt,
626,#0000FF,,FALSE,288.5699999,,,,,,triangle,780694,,,87,conjunctive-cpt,jspsych-conjunctive-cpt,
627,,,FALSE,289.5769999,161,1000,,,,,781701,,,87,conjunctive-cpt,jspsych-conjunctive-cpt,
628,#FFFF00,,FALSE,289.6789999,,,,,,circle,781803,,,87,conjunctive-cpt,jspsych-conjunctive-cpt,
629,,,FALSE,290.684,162,2500,,,,,782808,,,87,conjunctive-cpt,jspsych-conjunctive-cpt,
630,#FF0000,,FALSE,290.7880001,,,,,,square,782912,,,87,conjunctive-cpt,jspsych-conjunctive-cpt,
631,#0000FF,FALSE,TRUE,349.2179999,,,32,,,circle,783539,,,87,conjunctive-cpt,,
632,#FFFF00,TRUE,TRUE,291.415,,,32,,,triangle,783539,,,87,conjunctive-cpt,,
633,,,FALSE,293.3,163,2500,,,,,785424,,,87,conjunctive-cpt,jspsych-conjunctive-cpt,
634,#FF0000,,FALSE,293.405,,,,,,square,785529,,,87,conjunctive-cpt,jspsych-conjunctive-cpt,
635,#0000FF,FALSE,TRUE,351.473,,,32,,,circle,785794,,,87,conjunctive-cpt,,
636,#FFFF00,TRUE,TRUE,293.6700001,,,32,,,triangle,785794,,,87,conjunctive-cpt,,
637,,,FALSE,295.9089999,164,2000,,,,,788034,,,87,conjunctive-cpt,jspsych-conjunctive-cpt,
638,#FF0000,,FALSE,296.013,,,,,,square,788137,,,87,conjunctive-cpt,jspsych-conjunctive-cpt,
639,#0000FF,FALSE,TRUE,354.1459999,,,32,,,circle,788467,,,87,conjunctive-cpt,,
640,#FFFF00,TRUE,TRUE,296.3429999,,,32,,,triangle,788467,,,87,conjunctive-cpt,,
641,,,FALSE,298.0250001,165,1500,,,,,790149,,,87,conjunctive-cpt,jspsych-conjunctive-cpt,
642,#00FF00,,FALSE,298.1300001,,,,,,square,790254,,,87,conjunctive-cpt,jspsych-conjunctive-cpt,
643,,,FALSE,299.635,166,1000,,,,,791759,,,87,conjunctive-cpt,jspsych-conjunctive-cpt,
644,#0000FF,,FALSE,299.7390001,,,,,,triangle,791863,,,87,conjunctive-cpt,jspsych-conjunctive-cpt,
645,,,FALSE,300.744,167,2500,,,,,792868,,,87,conjunctive-cpt,jspsych-conjunctive-cpt,
646,#FFFF00,,FALSE,300.846,,,,,,triangle,792970,,,87,conjunctive-cpt,jspsych-conjunctive-cpt,
647,,,FALSE,303.355,168,2500,,,,,795479,,,87,conjunctive-cpt,jspsych-conjunctive-cpt,
648,#FF0000,,FALSE,303.4549999,,,,,,square,795579,,,87,conjunctive-cpt,jspsych-conjunctive-cpt,
649,#0000FF,FALSE,TRUE,361.618,,,32,,,circle,795939,,,87,conjunctive-cpt,,
650,#FFFF00,TRUE,TRUE,303.8150001,,,32,,,triangle,795939,,,87,conjunctive-cpt,,
651,,,FALSE,305.961,169,1500,,,,,798085,,,87,conjunctive-cpt,jspsych-conjunctive-cpt,
652,#0000FF,,FALSE,306.0640001,,,,,,triangle,798188,,,87,conjunctive-cpt,jspsych-conjunctive-cpt,
653,,,FALSE,307.576,170,1000,,,,,799700,,,87,conjunctive-cpt,jspsych-conjunctive-cpt,
654,#FF0000,,FALSE,307.6890001,,,,,,square,799813,,,87,conjunctive-cpt,jspsych-conjunctive-cpt,
655,#0000FF,FALSE,TRUE,365.858,,,32,,,circle,800179,,,87,conjunctive-cpt,,
656,#FFFF00,TRUE,TRUE,308.0550001,,,32,,,triangle,800179,,,87,conjunctive-cpt,,
657,,,FALSE,308.6949999,171,2500,,,,,800819,,,87,conjunctive-cpt,jspsych-conjunctive-cpt,
658,#00FF00,,FALSE,308.7980001,,,,,,square,800922,,,87,conjunctive-cpt,jspsych-conjunctive-cpt,
659,,,FALSE,311.3099999,172,2000,,,,,803434,,,87,conjunctive-cpt,jspsych-conjunctive-cpt,
660,#FFFF00,,FALSE,311.415,,,,,,triangle,803539,,,87,conjunctive-cpt,jspsych-conjunctive-cpt,
661,,,FALSE,313.4189999,173,1500,,,,,805544,,,87,conjunctive-cpt,jspsych-conjunctive-cpt,
662,#0000FF,,FALSE,313.523,,,,,,triangle,805647,,,87,conjunctive-cpt,jspsych-conjunctive-cpt,
663,,,FALSE,315.03,174,1500,,,,,807154,,,87,conjunctive-cpt,jspsych-conjunctive-cpt,
664,#FF0000,,FALSE,315.132,,,,,,square,807256,,,87,conjunctive-cpt,jspsych-conjunctive-cpt,
665,#0000FF,FALSE,TRUE,373.4419999,,,32,,,circle,807763,,,87,conjunctive-cpt,,
666,#FFFF00,TRUE,TRUE,315.6389999,,,32,,,triangle,807763,,,87,conjunctive-cpt,,
667,,,FALSE,316.6430001,175,2500,,,,,808768,,,87,conjunctive-cpt,jspsych-conjunctive-cpt,
668,#0000FF,,FALSE,316.747,,,,,,circle,808871,,,87,conjunctive-cpt,jspsych-conjunctive-cpt,
669,,,FALSE,319.2550001,176,1000,,,,,811379,,,87,conjunctive-cpt,jspsych-conjunctive-cpt,
670,#0000FF,,FALSE,319.3570001,,,,,,triangle,811481,,,87,conjunctive-cpt,jspsych-conjunctive-cpt,
671,,,FALSE,320.3640001,177,1000,,,,,812488,,,87,conjunctive-cpt,jspsych-conjunctive-cpt,
672,#FF0000,,FALSE,320.4649999,,,,,,square,812589,,,87,conjunctive-cpt,jspsych-conjunctive-cpt,
673,#0000FF,FALSE,TRUE,378.609,,,32,,,circle,812930,,,87,conjunctive-cpt,,
674,#FFFF00,TRUE,TRUE,320.806,,,32,,,triangle,812931,,,87,conjunctive-cpt,,
675,,,FALSE,321.4779999,178,1500,,,,,813602,,,87,conjunctive-cpt,jspsych-conjunctive-cpt,
676,#FF0000,,FALSE,321.582,,,,,,square,813707,,,87,conjunctive-cpt,jspsych-conjunctive-cpt,
677,,,FALSE,323.0870001,179,1500,,,,,815211,,,87,conjunctive-cpt,jspsych-conjunctive-cpt,
678,#FF0000,,FALSE,323.1900001,,,,,,square,815314,,,87,conjunctive-cpt,jspsych-conjunctive-cpt,
679,#0000FF,FALSE,TRUE,381.3940001,,,32,,,circle,815715,,,87,conjunctive-cpt,,
680,#FFFF00,TRUE,TRUE,323.5910001,,,32,,,triangle,815715,,,87,conjunctive-cpt,,
681,,,FALSE,324.697,180,2000,,,,,816821,,,87,conjunctive-cpt,jspsych-conjunctive-cpt,
682,#FF0000,,FALSE,324.7980001,,,,,,square,816922,,,87,conjunctive-cpt,jspsych-conjunctive-cpt,
683,#0000FF,FALSE,TRUE,382.898,,,32,,,circle,817220,,,87,conjunctive-cpt,,
684,#FFFF00,TRUE,TRUE,325.096,,,32,,,triangle,817220,,,87,conjunctive-cpt,,
685,,,FALSE,326.8110001,181,2000,,,,,818935,,,87,conjunctive-cpt,jspsych-conjunctive-cpt,
686,#FFFF00,,FALSE,326.9170001,,,,,,square,819041,,,87,conjunctive-cpt,jspsych-conjunctive-cpt,
687,,,FALSE,328.921,182,1500,,,,,821045,,,87,conjunctive-cpt,jspsych-conjunctive-cpt,
688,#00FF00,,FALSE,329.0250001,,,,,,circle,821149,,,87,conjunctive-cpt,jspsych-conjunctive-cpt,
689,,,FALSE,330.53,183,1500,,,,,822654,,,87,conjunctive-cpt,jspsych-conjunctive-cpt,
690,#FF0000,,FALSE,330.6340001,,,,,,square,822758,,,87,conjunctive-cpt,jspsych-conjunctive-cpt,
691,#0000FF,FALSE,TRUE,388.707,,,32,,,circle,823028,,,87,conjunctive-cpt,,
692,#FFFF00,TRUE,TRUE,330.904,,,32,,,triangle,823028,,,87,conjunctive-cpt,,
693,,,FALSE,332.145,184,2000,,,,,824269,,,87,conjunctive-cpt,jspsych-conjunctive-cpt,
694,#FFFF00,,FALSE,332.25,,,,,,triangle,824374,,,87,conjunctive-cpt,jspsych-conjunctive-cpt,
695,,,FALSE,334.2550001,185,1000,,,,,826379,,,87,conjunctive-cpt,jspsych-conjunctive-cpt,
696,#FF0000,,FALSE,334.359,,,,,,circle,826483,,,87,conjunctive-cpt,jspsych-conjunctive-cpt,
697,#0000FF,FALSE,TRUE,392.401,,,32,,,circle,826722,,,87,conjunctive-cpt,,
698,#FFFF00,FALSE,TRUE,334.598,,,32,,,triangle,826722,,,87,conjunctive-cpt,,
699,,,FALSE,335.3640001,186,2500,,,,,827488,,,87,conjunctive-cpt,jspsych-conjunctive-cpt,
700,#FF0000,,FALSE,335.467,,,,,,triangle,827591,,,87,conjunctive-cpt,jspsych-conjunctive-cpt,
701,,,FALSE,337.9790001,187,1000,,,,,830103,,,87,conjunctive-cpt,jspsych-conjunctive-cpt,
702,#FF0000,,FALSE,338.0829999,,,,,,square,830207,,,87,conjunctive-cpt,jspsych-conjunctive-cpt,
703,#0000FF,FALSE,TRUE,396.177,,,32,,,circle,830498,,,87,conjunctive-cpt,,
704,#FFFF00,TRUE,TRUE,338.3740001,,,32,,,triangle,830498,,,87,conjunctive-cpt,,
705,,,FALSE,339.0899999,188,2500,,,,,831214,,,87,conjunctive-cpt,jspsych-conjunctive-cpt,
706,#00FF00,,FALSE,339.1919999,,,,,,triangle,831317,,,87,conjunctive-cpt,jspsych-conjunctive-cpt,
707,,,FALSE,341.704,189,1500,,,,,833828,,,87,conjunctive-cpt,jspsych-conjunctive-cpt,
708,#FF0000,,FALSE,341.8099999,,,,,,triangle,833934,,,87,conjunctive-cpt,jspsych-conjunctive-cpt,
709,#0000FF,FALSE,TRUE,399.8740001,,,32,,,circle,834195,,,87,conjunctive-cpt,,
710,#FFFF00,FALSE,TRUE,342.0710001,,,32,,,triangle,834195,,,87,conjunctive-cpt,,
711,,,FALSE,343.3140001,190,1500,,,,,835438,,,87,conjunctive-cpt,jspsych-conjunctive-cpt,
712,#0000FF,,FALSE,343.4170001,,,,,,triangle,835541,,,87,conjunctive-cpt,jspsych-conjunctive-cpt,
713,,,FALSE,344.9230001,191,1500,,,,,837047,,,87,conjunctive-cpt,jspsych-conjunctive-cpt,
714,#FF0000,,FALSE,345.026,,,,,,circle,837150,,,87,conjunctive-cpt,jspsych-conjunctive-cpt,
715,,,FALSE,346.5380001,192,2500,,,,,838662,,,87,conjunctive-cpt,jspsych-conjunctive-cpt,
716,#FFFF00,,FALSE,346.6430001,,,,,,square,838767,,,87,conjunctive-cpt,jspsych-conjunctive-cpt,
717,,,FALSE,349.1489999,193,1000,,,,,841273,,,87,conjunctive-cpt,jspsych-conjunctive-cpt,
718,#FF0000,,FALSE,349.2520001,,,,,,circle,841376,,,87,conjunctive-cpt,jspsych-conjunctive-cpt,
719,,,FALSE,350.2580001,194,2500,,,,,842382,,,87,conjunctive-cpt,jspsych-conjunctive-cpt,
720,#00FF00,,FALSE,350.359,,,,,,triangle,842484,,,87,conjunctive-cpt,jspsych-conjunctive-cpt,
721,,,FALSE,352.8710001,195,1500,,,,,844996,,,87,conjunctive-cpt,jspsych-conjunctive-cpt,
722,#FF0000,,FALSE,352.9779999,,,,,,square,845102,,,87,conjunctive-cpt,jspsych-conjunctive-cpt,
723,#0000FF,FALSE,TRUE,411.138,,,32,,,circle,845459,,,87,conjunctive-cpt,,
724,#FFFF00,TRUE,TRUE,353.335,,,32,,,triangle,845459,,,87,conjunctive-cpt,,
725,,,FALSE,354.4820001,196,2500,,,,,846606,,,87,conjunctive-cpt,jspsych-conjunctive-cpt,
726,#FFFF00,,FALSE,354.585,,,,,,circle,846709,,,87,conjunctive-cpt,jspsych-conjunctive-cpt,
727,,,FALSE,357.0970001,197,2500,,,,,849221,,,87,conjunctive-cpt,jspsych-conjunctive-cpt,
728,#FF0000,,FALSE,357.2019999,,,,,,triangle,849326,,,87,conjunctive-cpt,jspsych-conjunctive-cpt,
729,,,FALSE,359.7149999,198,2000,,,,,851839,,,87,conjunctive-cpt,jspsych-conjunctive-cpt,
730,#FF0000,,FALSE,359.8180001,,,,,,square,851942,,,87,conjunctive-cpt,jspsych-conjunctive-cpt,
731,,,FALSE,361.832,199,1000,,,,,853956,,,87,conjunctive-cpt,jspsych-conjunctive-cpt,
732,#0000FF,,FALSE,361.937,,,,,,triangle,854061,,,87,conjunctive-cpt,jspsych-conjunctive-cpt,
733,,,FALSE,362.941,200,2500,,,,,855065,,,87,conjunctive-cpt,jspsych-conjunctive-cpt,
734,#00FF00,,FALSE,363.0439999,,,,,,triangle,855169,,,87,conjunctive-cpt,jspsych-conjunctive-cpt,
735,,,FALSE,365.5510001,201,2500,,,,,857675,,,87,conjunctive-cpt,jspsych-conjunctive-cpt,
736,#0000FF,,FALSE,365.6530001,,,,,,triangle,857777,,,87,conjunctive-cpt,jspsych-conjunctive-cpt,
737,,,FALSE,368.164,202,1500,,,,,860288,,,87,conjunctive-cpt,jspsych-conjunctive-cpt,
738,#FF0000,,FALSE,368.276,,,,,,square,860400,,,87,conjunctive-cpt,jspsych-conjunctive-cpt,
739,#0000FF,FALSE,TRUE,426.418,,,32,,,circle,860739,,,87,conjunctive-cpt,,
740,#FFFF00,TRUE,TRUE,368.615,,,32,,,triangle,860739,,,87,conjunctive-cpt,,
741,,,FALSE,369.7839999,203,2000,,,,,861909,,,87,conjunctive-cpt,jspsych-conjunctive-cpt,
742,#FF0000,,FALSE,369.8859999,,,,,,triangle,862010,,,87,conjunctive-cpt,jspsych-conjunctive-cpt,
743,,,FALSE,371.898,204,1500,,,,,864022,,,87,conjunctive-cpt,jspsych-conjunctive-cpt,
744,#0000FF,,FALSE,372.0039999,,,,,,circle,864128,,,87,conjunctive-cpt,jspsych-conjunctive-cpt,
745,,,FALSE,373.51,205,1500,,,,,865634,,,87,conjunctive-cpt,jspsych-conjunctive-cpt,
746,#0000FF,,FALSE,373.612,,,,,,square,865736,,,87,conjunctive-cpt,jspsych-conjunctive-cpt,
747,,,FALSE,375.1170001,206,2500,,,,,867241,,,87,conjunctive-cpt,jspsych-conjunctive-cpt,
748,#0000FF,,FALSE,375.22,,,,,,triangle,867345,,,87,conjunctive-cpt,jspsych-conjunctive-cpt,
749,,,FALSE,377.7320001,207,2500,,,,,869856,,,87,conjunctive-cpt,jspsych-conjunctive-cpt,
750,#FF0000,,FALSE,377.8380001,,,,,,circle,869962,,,87,conjunctive-cpt,jspsych-conjunctive-cpt,
751,,,FALSE,380.352,208,2500,,,,,872476,,,87,conjunctive-cpt,jspsych-conjunctive-cpt,
752,#FFFF00,,FALSE,380.4530001,,,,,,square,872577,,,87,conjunctive-cpt,jspsych-conjunctive-cpt,
753,,,FALSE,382.9660001,209,2500,,,,,875090,,,87,conjunctive-cpt,jspsych-conjunctive-cpt,
754,#00FF00,,FALSE,383.072,,,,,,square,875196,,,87,conjunctive-cpt,jspsych-conjunctive-cpt,
755,,,FALSE,385.5780001,210,2500,,,,,877702,,,87,conjunctive-cpt,jspsych-conjunctive-cpt,
756,#00FF00,,FALSE,385.6789999,,,,,,square,877803,,,87,conjunctive-cpt,jspsych-conjunctive-cpt,
757,,,FALSE,388.191,211,2000,,,,,880315,,,87,conjunctive-cpt,jspsych-conjunctive-cpt,
758,#00FF00,,FALSE,388.2969999,,,,,,square,880421,,,87,conjunctive-cpt,jspsych-conjunctive-cpt,
759,,,FALSE,390.303,212,1500,,,,,882427,,,87,conjunctive-cpt,jspsych-conjunctive-cpt,
760,#FFFF00,,FALSE,390.4059999,,,,,,square,882530,,,87,conjunctive-cpt,jspsych-conjunctive-cpt,
761,,,FALSE,391.9160001,213,2500,,,,,884040,,,87,conjunctive-cpt,jspsych-conjunctive-cpt,
762,#FF0000,,FALSE,392.0239999,,,,,,square,884148,,,87,conjunctive-cpt,jspsych-conjunctive-cpt,
763,#0000FF,FALSE,TRUE,450.2260001,,,32,,,circle,884547,,,87,conjunctive-cpt,,
764,#FFFF00,TRUE,TRUE,392.4230001,,,32,,,triangle,884547,,,87,conjunctive-cpt,,
765,,,FALSE,394.527,214,1500,,,,,886651,,,87,conjunctive-cpt,jspsych-conjunctive-cpt,
766,#FFFF00,,FALSE,394.6300001,,,,,,square,886754,,,87,conjunctive-cpt,jspsych-conjunctive-cpt,
767,,,FALSE,396.1370001,215,1500,,,,,888261,,,87,conjunctive-cpt,jspsych-conjunctive-cpt,
768,#FF0000,,FALSE,396.24,,,,,,square,888364,,,87,conjunctive-cpt,jspsych-conjunctive-cpt,
769,,,FALSE,397.7509999,216,1500,,,,,889875,,,87,conjunctive-cpt,jspsych-conjunctive-cpt,
770,#0000FF,,FALSE,397.8559999,,,,,,square,889980,,,87,conjunctive-cpt,jspsych-conjunctive-cpt,
771,,,FALSE,399.362,217,2000,,,,,891486,,,87,conjunctive-cpt,jspsych-conjunctive-cpt,
772,#0000FF,,FALSE,399.4649999,,,,,,square,891589,,,87,conjunctive-cpt,jspsych-conjunctive-cpt,
773,,,FALSE,401.4760001,218,1500,,,,,893600,,,87,conjunctive-cpt,jspsych-conjunctive-cpt,
774,#0000FF,,FALSE,401.5810001,,,,,,circle,893705,,,87,conjunctive-cpt,jspsych-conjunctive-cpt,
775,,,FALSE,403.086,219,2500,,,,,895210,,,87,conjunctive-cpt,jspsych-conjunctive-cpt,
776,#00FF00,,FALSE,403.1890001,,,,,,triangle,895314,,,87,conjunctive-cpt,jspsych-conjunctive-cpt,
777,,,FALSE,405.6949999,220,1000,,,,,897819,,,87,conjunctive-cpt,jspsych-conjunctive-cpt,
778,#FF0000,,FALSE,405.799,,,,,,square,897923,,,87,conjunctive-cpt,jspsych-conjunctive-cpt,
779,#0000FF,FALSE,TRUE,464.0179999,,,32,,,circle,898339,,,87,conjunctive-cpt,,
780,#FFFF00,TRUE,TRUE,406.2149999,,,32,,,triangle,898339,,,87,conjunctive-cpt,,
781,,,FALSE,406.8099999,221,1000,,,,,898934,,,87,conjunctive-cpt,jspsych-conjunctive-cpt,
782,#FFFF00,,FALSE,406.914,,,,,,triangle,899038,,,87,conjunctive-cpt,jspsych-conjunctive-cpt,
783,,,FALSE,407.921,222,2000,,,,,900045,,,87,conjunctive-cpt,jspsych-conjunctive-cpt,
784,#FFFF00,,FALSE,408.023,,,,,,circle,900147,,,87,conjunctive-cpt,jspsych-conjunctive-cpt,
785,,,FALSE,410.029,223,1500,,,,,902153,,,87,conjunctive-cpt,jspsych-conjunctive-cpt,
786,#FF0000,,FALSE,410.132,,,,,,square,902256,,,87,conjunctive-cpt,jspsych-conjunctive-cpt,
787,#0000FF,FALSE,TRUE,468.401,,,32,,,circle,902722,,,87,conjunctive-cpt,,
788,#FFFF00,TRUE,TRUE,410.599,,,32,,,triangle,902723,,,87,conjunctive-cpt,,
789,,,FALSE,411.6430001,224,1500,,,,,903767,,,87,conjunctive-cpt,jspsych-conjunctive-cpt,
790,#00FF00,,FALSE,411.75,,,,,,circle,903874,,,87,conjunctive-cpt,jspsych-conjunctive-cpt,
791,,,FALSE,413.2539999,225,1000,,,,,905378,,,87,conjunctive-cpt,jspsych-conjunctive-cpt,
792,#00FF00,,FALSE,413.3570001,,,,,,circle,905481,,,87,conjunctive-cpt,jspsych-conjunctive-cpt,
793,,,FALSE,414.3629999,226,1000,,,,,906487,,,87,conjunctive-cpt,jspsych-conjunctive-cpt,
794,#FF0000,,FALSE,414.4660001,,,,,,square,906590,,,87,conjunctive-cpt,jspsych-conjunctive-cpt,
795,#0000FF,FALSE,TRUE,472.6889999,,,32,,,circle,907010,,,87,conjunctive-cpt,,
796,#FFFF00,TRUE,TRUE,414.8859999,,,32,,,triangle,907010,,,87,conjunctive-cpt,,
797,,,FALSE,415.4720001,227,2000,,,,,907596,,,87,conjunctive-cpt,jspsych-conjunctive-cpt,
798,#FF0000,,FALSE,415.5740001,,,,,,triangle,907698,,,87,conjunctive-cpt,jspsych-conjunctive-cpt,
799,,,FALSE,417.585,228,1500,,,,,909709,,,87,conjunctive-cpt,jspsych-conjunctive-cpt,
800,#FF0000,,FALSE,417.697,,,,,,circle,909821,,,87,conjunctive-cpt,jspsych-conjunctive-cpt,
801,,,FALSE,419.2060001,229,2000,,,,,911330,,,87,conjunctive-cpt,jspsych-conjunctive-cpt,
802,#00FF00,,FALSE,419.3069999,,,,,,circle,911431,,,87,conjunctive-cpt,jspsych-conjunctive-cpt,
803,,,FALSE,421.3140001,230,1000,,,,,913438,,,87,conjunctive-cpt,jspsych-conjunctive-cpt,
804,#00FF00,,FALSE,421.4230001,,,,,,square,913547,,,87,conjunctive-cpt,jspsych-conjunctive-cpt,
805,,,FALSE,422.431,231,2000,,,,,914555,,,87,conjunctive-cpt,jspsych-conjunctive-cpt,
806,#FF0000,,FALSE,422.533,,,,,,square,914657,,,87,conjunctive-cpt,jspsych-conjunctive-cpt,
807,#0000FF,FALSE,TRUE,480.914,,,32,,,circle,915235,,,87,conjunctive-cpt,,
808,#FFFF00,TRUE,TRUE,423.1110001,,,32,,,triangle,915235,,,87,conjunctive-cpt,,
809,,,FALSE,424.539,232,1000,,,,,916663,,,87,conjunctive-cpt,jspsych-conjunctive-cpt,
810,#0000FF,,FALSE,424.641,,,,,,square,916765,,,87,conjunctive-cpt,jspsych-conjunctive-cpt,
811,,,FALSE,425.648,233,1000,,,,,917772,,,87,conjunctive-cpt,jspsych-conjunctive-cpt,
812,#FF0000,,FALSE,425.75,,,,,,square,917874,,,87,conjunctive-cpt,jspsych-conjunctive-cpt,
813,#0000FF,FALSE,TRUE,484.033,,,32,,,circle,918354,,,87,conjunctive-cpt,,
814,#FFFF00,TRUE,TRUE,426.23,,,32,,,triangle,918354,,,87,conjunctive-cpt,,
815,,,FALSE,426.763,234,2000,,,,,918887,,,87,conjunctive-cpt,jspsych-conjunctive-cpt,
816,#FF0000,,FALSE,426.8659999,,,,,,triangle,918990,,,87,conjunctive-cpt,jspsych-conjunctive-cpt,
817,,,FALSE,428.8729999,235,2000,,,,,920997,,,87,conjunctive-cpt,jspsych-conjunctive-cpt,
818,#00FF00,,FALSE,428.9760001,,,,,,triangle,921100,,,87,conjunctive-cpt,jspsych-conjunctive-cpt,
819,,,FALSE,430.9809999,236,2500,,,,,923105,,,87,conjunctive-cpt,jspsych-conjunctive-cpt,
820,#00FF00,,FALSE,431.0840001,,,,,,square,923208,,,87,conjunctive-cpt,jspsych-conjunctive-cpt,
821,,,FALSE,433.596,237,2500,,,,,925720,,,87,conjunctive-cpt,jspsych-conjunctive-cpt,
822,#FF0000,,FALSE,433.7090001,,,,,,square,925833,,,87,conjunctive-cpt,jspsych-conjunctive-cpt,
823,#0000FF,FALSE,TRUE,491.954,,,32,,,circle,926275,,,87,conjunctive-cpt,,
824,#FFFF00,TRUE,TRUE,434.151,,,32,,,triangle,926275,,,87,conjunctive-cpt,,
825,,,FALSE,436.214,238,1500,,,,,928338,,,87,conjunctive-cpt,jspsych-conjunctive-cpt,
826,#00FF00,,FALSE,436.3180001,,,,,,triangle,928442,,,87,conjunctive-cpt,jspsych-conjunctive-cpt,
827,,,FALSE,437.829,239,2500,,,,,929954,,,87,conjunctive-cpt,jspsych-conjunctive-cpt,
828,#0000FF,,FALSE,437.9430001,,,,,,square,930068,,,87,conjunctive-cpt,jspsych-conjunctive-cpt,
829,,,FALSE,440.448,240,1500,,,,,932572,,,87,conjunctive-cpt,jspsych-conjunctive-cpt,
830,#0000FF,,FALSE,440.5510001,,,,,,square,932675,,,87,conjunctive-cpt,jspsych-conjunctive-cpt,
831,,,FALSE,442.0640001,241,1500,,,,,934188,,,87,conjunctive-cpt,jspsych-conjunctive-cpt,
832,#FFFF00,,FALSE,442.168,,,,,,triangle,934292,,,87,conjunctive-cpt,jspsych-conjunctive-cpt,
833,,,FALSE,443.674,242,2500,,,,,935798,,,87,conjunctive-cpt,jspsych-conjunctive-cpt,
834,#FF0000,,FALSE,443.777,,,,,,triangle,935901,,,87,conjunctive-cpt,jspsych-conjunctive-cpt,
835,,,FALSE,446.2820001,243,1000,,,,,938406,,,87,conjunctive-cpt,jspsych-conjunctive-cpt,
836,#FF0000,,FALSE,446.385,,,,,,triangle,938509,,,87,conjunctive-cpt,jspsych-conjunctive-cpt,
837,,,FALSE,447.3970001,244,2000,,,,,939521,,,87,conjunctive-cpt,jspsych-conjunctive-cpt,
838,#FF0000,,FALSE,447.5109999,,,,,,square,939635,,,87,conjunctive-cpt,jspsych-conjunctive-cpt,
839,#0000FF,FALSE,TRUE,505.665,,,32,,,circle,939987,,,87,conjunctive-cpt,,
840,#FFFF00,TRUE,TRUE,447.8629999,,,32,,,triangle,939987,,,87,conjunctive-cpt,,
841,,,FALSE,449.517,245,2000,,,,,941641,,,87,conjunctive-cpt,jspsych-conjunctive-cpt,
842,#0000FF,,FALSE,449.6200001,,,,,,triangle,941744,,,87,conjunctive-cpt,jspsych-conjunctive-cpt,
843,,,FALSE,451.631,246,1500,,,,,943755,,,87,conjunctive-cpt,jspsych-conjunctive-cpt,
844,#0000FF,,FALSE,451.7360001,,,,,,circle,943860,,,87,conjunctive-cpt,jspsych-conjunctive-cpt,
845,,,FALSE,453.2420001,247,1500,,,,,945366,,,87,conjunctive-cpt,jspsych-conjunctive-cpt,
846,#0000FF,,FALSE,453.3440001,,,,,,triangle,945468,,,87,conjunctive-cpt,jspsych-conjunctive-cpt,
847,,,FALSE,454.8499999,248,1000,,,,,946974,,,87,conjunctive-cpt,jspsych-conjunctive-cpt,
848,#FF0000,,FALSE,454.9530001,,,,,,square,947077,,,87,conjunctive-cpt,jspsych-conjunctive-cpt,
849,#0000FF,FALSE,TRUE,513.2820001,,,32,,,circle,947603,,,87,conjunctive-cpt,,
850,#FFFF00,TRUE,TRUE,455.4790001,,,32,,,triangle,947603,,,87,conjunctive-cpt,,
851,,,FALSE,455.9579999,249,1000,,,,,948082,,,87,conjunctive-cpt,jspsych-conjunctive-cpt,
852,#0000FF,,FALSE,456.0610001,,,,,,triangle,948185,,,87,conjunctive-cpt,jspsych-conjunctive-cpt,
853,,,FALSE,457.073,250,1500,,,,,949197,,,87,conjunctive-cpt,jspsych-conjunctive-cpt,
854,#0000FF,,FALSE,457.178,,,,,,triangle,949302,,,87,conjunctive-cpt,jspsych-conjunctive-cpt,
855,,,FALSE,458.684,251,1500,,,,,950808,,,87,conjunctive-cpt,jspsych-conjunctive-cpt,
856,#FFFF00,,FALSE,458.786,,,,,,circle,950910,,,87,conjunctive-cpt,jspsych-conjunctive-cpt,
857,,,FALSE,460.2920001,252,2500,,,,,952416,,,87,conjunctive-cpt,jspsych-conjunctive-cpt,
858,#FF0000,,FALSE,460.3940001,,,,,,square,952518,,,87,conjunctive-cpt,jspsych-conjunctive-cpt,
859,#0000FF,FALSE,TRUE,518.6110001,,,32,,,circle,952932,,,87,conjunctive-cpt,,
860,#FFFF00,TRUE,TRUE,460.8080001,,,32,,,triangle,952932,,,87,conjunctive-cpt,,
861,,,FALSE,462.9070001,253,1500,,,,,955031,,,87,conjunctive-cpt,jspsych-conjunctive-cpt,
862,#00FF00,,FALSE,463.013,,,,,,square,955137,,,87,conjunctive-cpt,jspsych-conjunctive-cpt,
863,,,FALSE,464.5180001,254,2500,,,,,956642,,,87,conjunctive-cpt,jspsych-conjunctive-cpt,
864,#FF0000,,FALSE,464.6210001,,,,,,triangle,956745,,,87,conjunctive-cpt,jspsych-conjunctive-cpt,
865,,,FALSE,467.132,255,1000,,,,,959256,,,87,conjunctive-cpt,jspsych-conjunctive-cpt,
866,#FF0000,,FALSE,467.2390001,,,,,,square,959363,,,87,conjunctive-cpt,jspsych-conjunctive-cpt,
867,#0000FF,FALSE,TRUE,525.3929999,,,32,,,circle,959715,,,87,conjunctive-cpt,,
868,#FFFF00,TRUE,TRUE,467.5910001,,,32,,,triangle,959715,,,87,conjunctive-cpt,,
869,,,FALSE,468.2520001,256,2000,,,,,960376,,,87,conjunctive-cpt,jspsych-conjunctive-cpt,
870,#0000FF,,FALSE,468.3540001,,,,,,square,960479,,,87,conjunctive-cpt,jspsych-conjunctive-cpt,
871,,,FALSE,470.3600001,257,1500,,,,,962484,,,87,conjunctive-cpt,jspsych-conjunctive-cpt,
872,#FFFF00,,FALSE,470.4630001,,,,,,square,962587,,,87,conjunctive-cpt,jspsych-conjunctive-cpt,
873,,,FALSE,471.974,258,2000,,,,,964098,,,87,conjunctive-cpt,jspsych-conjunctive-cpt,
874,#FFFF00,,FALSE,472.0880001,,,,,,triangle,964212,,,87,conjunctive-cpt,jspsych-conjunctive-cpt,
875,,,FALSE,474.0929999,259,1500,,,,,966217,,,87,conjunctive-cpt,jspsych-conjunctive-cpt,
876,#0000FF,,FALSE,474.1960001,,,,,,square,966320,,,87,conjunctive-cpt,jspsych-conjunctive-cpt,
877,,,FALSE,475.7019999,260,2500,,,,,967826,,,87,conjunctive-cpt,jspsych-conjunctive-cpt,
878,#FFFF00,,FALSE,475.8050001,,,,,,square,967929,,,87,conjunctive-cpt,jspsych-conjunctive-cpt,
879,,,FALSE,478.316,261,2500,,,,,970440,,,87,conjunctive-cpt,jspsych-conjunctive-cpt,
880,#FF0000,,FALSE,478.421,,,,,,triangle,970545,,,87,conjunctive-cpt,jspsych-conjunctive-cpt,
881,,,FALSE,480.927,262,2000,,,,,973051,,,87,conjunctive-cpt,jspsych-conjunctive-cpt,
882,#FF0000,,FALSE,481.0309999,,,,,,square,973155,,,87,conjunctive-cpt,jspsych-conjunctive-cpt,
883,#0000FF,FALSE,TRUE,539.2980001,,,32,,,circle,973619,,,87,conjunctive-cpt,,
884,#FFFF00,TRUE,TRUE,481.4950001,,,32,,,triangle,973619,,,87,conjunctive-cpt,,
885,,,FALSE,483.0420001,263,2500,,,,,975166,,,87,conjunctive-cpt,jspsych-conjunctive-cpt,
886,#FF0000,,FALSE,483.148,,,,,,square,975272,,,87,conjunctive-cpt,jspsych-conjunctive-cpt,
887,#0000FF,FALSE,TRUE,541.457,,,32,,,circle,975778,,,87,conjunctive-cpt,,
888,#FFFF00,TRUE,TRUE,483.654,,,32,,,triangle,975778,,,87,conjunctive-cpt,,
889,,,FALSE,485.665,264,2000,,,,,977789,,,87,conjunctive-cpt,jspsych-conjunctive-cpt,
890,#FF0000,,FALSE,485.78,,,,,,square,977904,,,87,conjunctive-cpt,jspsych-conjunctive-cpt,
891,#0000FF,FALSE,TRUE,543.858,,,32,,,circle,978179,,,87,conjunctive-cpt,,
892,#FFFF00,TRUE,TRUE,486.0550001,,,32,,,triangle,978179,,,87,conjunctive-cpt,,
893,,,FALSE,487.7920001,265,1500,,,,,979916,,,87,conjunctive-cpt,jspsych-conjunctive-cpt,
894,#FF0000,,FALSE,487.898,,,,,,square,980022,,,87,conjunctive-cpt,jspsych-conjunctive-cpt,
895,#0000FF,FALSE,TRUE,546.0969999,,,32,,,circle,980418,,,87,conjunctive-cpt,,
896,#FFFF00,TRUE,TRUE,488.2939999,,,32,,,triangle,980418,,,87,conjunctive-cpt,,
897,,,FALSE,489.404,266,2500,,,,,981528,,,87,conjunctive-cpt,jspsych-conjunctive-cpt,
898,#00FF00,,FALSE,489.507,,,,,,triangle,981631,,,87,conjunctive-cpt,jspsych-conjunctive-cpt,
899,,,FALSE,492.0180001,267,2500,,,,,984142,,,87,conjunctive-cpt,jspsych-conjunctive-cpt,
900,#FF0000,,FALSE,492.131,,,,,,triangle,984255,,,87,conjunctive-cpt,jspsych-conjunctive-cpt,
901,,,FALSE,494.6370001,268,2000,,,,,986761,,,87,conjunctive-cpt,jspsych-conjunctive-cpt,
902,#FF0000,,FALSE,494.7390001,,,,,,circle,986863,,,87,conjunctive-cpt,jspsych-conjunctive-cpt,
903,,,FALSE,496.7509999,269,2000,,,,,988875,,,87,conjunctive-cpt,jspsych-conjunctive-cpt,
904,#FF0000,,FALSE,496.8629999,,,,,,triangle,988987,,,87,conjunctive-cpt,jspsych-conjunctive-cpt,
905,,,FALSE,498.8700001,270,2000,,,,,990994,,,87,conjunctive-cpt,jspsych-conjunctive-cpt,
906,#FFFF00,,FALSE,498.974,,,,,,circle,991098,,,87,conjunctive-cpt,jspsych-conjunctive-cpt,
907,,,FALSE,500.9790001,271,2500,,,,,993103,,,87,conjunctive-cpt,jspsych-conjunctive-cpt,
908,#FFFF00,,FALSE,501.0829999,,,,,,triangle,993207,,,87,conjunctive-cpt,jspsych-conjunctive-cpt,
909,,,FALSE,503.5929999,272,2500,,,,,995717,,,87,conjunctive-cpt,jspsych-conjunctive-cpt,
910,#FF0000,,FALSE,503.7060001,,,,,,square,995830,,,87,conjunctive-cpt,jspsych-conjunctive-cpt,
911,,,FALSE,506.2130001,273,1000,,,,,998337,,,87,conjunctive-cpt,jspsych-conjunctive-cpt,
912,#FF0000,,FALSE,506.316,,,,,,square,998440,,,87,conjunctive-cpt,jspsych-conjunctive-cpt,
913,#0000FF,FALSE,TRUE,564.53,,,32,,,circle,998851,,,87,conjunctive-cpt,,
914,#FFFF00,TRUE,TRUE,506.727,,,32,,,triangle,998851,,,87,conjunctive-cpt,,
915,,,FALSE,507.3269999,274,1000,,,,,999451,,,87,conjunctive-cpt,jspsych-conjunctive-cpt,
916,#FF0000,,FALSE,507.4330001,,,,,,circle,999557,,,87,conjunctive-cpt,jspsych-conjunctive-cpt,
917,,,FALSE,508.4400001,275,1500,,,,,1000564,,,87,conjunctive-cpt,jspsych-conjunctive-cpt,
918,#FF0000,,FALSE,508.54,,,,,,square,1000664,,,87,conjunctive-cpt,jspsych-conjunctive-cpt,
919,#0000FF,FALSE,TRUE,566.721,,,32,,,circle,1001042,,,87,conjunctive-cpt,,
920,#FFFF00,TRUE,TRUE,508.918,,,32,,,triangle,1001042,,,87,conjunctive-cpt,,
921,,,FALSE,510.049,276,2000,,,,,1002173,,,87,conjunctive-cpt,jspsych-conjunctive-cpt,
922,#FF0000,,FALSE,510.165,,,,,,triangle,1002289,,,87,conjunctive-cpt,jspsych-conjunctive-cpt,
923,,,FALSE,512.1789999,277,1500,,,,,1004303,,,87,conjunctive-cpt,jspsych-conjunctive-cpt,
924,#FF0000,,FALSE,512.283,,,,,,square,1004407,,,87,conjunctive-cpt,jspsych-conjunctive-cpt,
925,#0000FF,FALSE,TRUE,570.434,,,32,,,circle,1004755,,,87,conjunctive-cpt,,
926,#FFFF00,TRUE,TRUE,512.631,,,32,,,triangle,1004755,,,87,conjunctive-cpt,,
927,,,FALSE,513.79,278,1500,,,,,1005914,,,87,conjunctive-cpt,jspsych-conjunctive-cpt,
928,#0000FF,,FALSE,513.891,,,,,,square,1006016,,,87,conjunctive-cpt,jspsych-conjunctive-cpt,
929,,,FALSE,515.398,279,2500,,,,,1007522,,,87,conjunctive-cpt,jspsych-conjunctive-cpt,
930,#00FF00,,FALSE,515.5,,,,,,triangle,1007624,,,87,conjunctive-cpt,jspsych-conjunctive-cpt,
931,,,FALSE,518.0120001,280,2000,,,,,1010136,,,87,conjunctive-cpt,jspsych-conjunctive-cpt,
932,#00FF00,,FALSE,518.118,,,,,,triangle,1010242,,,87,conjunctive-cpt,jspsych-conjunctive-cpt,
933,,,FALSE,520.1229999,281,1000,,,,,1012247,,,87,conjunctive-cpt,jspsych-conjunctive-cpt,
934,#FF0000,,FALSE,520.2249999,,,,,,triangle,1012349,,,87,conjunctive-cpt,jspsych-conjunctive-cpt,
935,,,FALSE,521.2309999,282,2500,,,,,1013355,,,87,conjunctive-cpt,jspsych-conjunctive-cpt,
936,#00FF00,,FALSE,521.3340001,,,,,,circle,1013458,,,87,conjunctive-cpt,jspsych-conjunctive-cpt,
937,,,FALSE,523.845,283,2500,,,,,1015969,,,87,conjunctive-cpt,jspsych-conjunctive-cpt,
938,#FF0000,,FALSE,523.951,,,,,,square,1016075,,,87,conjunctive-cpt,jspsych-conjunctive-cpt,
939,#0000FF,FALSE,TRUE,582.194,,,32,,,circle,1016515,,,87,conjunctive-cpt,,
940,#FFFF00,TRUE,TRUE,524.391,,,32,,,triangle,1016515,,,87,conjunctive-cpt,,
941,,,FALSE,526.457,284,2000,,,,,1018581,,,87,conjunctive-cpt,jspsych-conjunctive-cpt,
942,#00FF00,,FALSE,526.559,,,,,,triangle,1018683,,,87,conjunctive-cpt,jspsych-conjunctive-cpt,
943,,,FALSE,528.5710001,285,2500,,,,,1020695,,,87,conjunctive-cpt,jspsych-conjunctive-cpt,
944,#FFFF00,,FALSE,528.677,,,,,,triangle,1020801,,,87,conjunctive-cpt,jspsych-conjunctive-cpt,
945,,,FALSE,531.1819999,286,2000,,,,,1023306,,,87,conjunctive-cpt,jspsych-conjunctive-cpt,
946,#FF0000,,FALSE,531.2850001,,,,,,triangle,1023409,,,87,conjunctive-cpt,jspsych-conjunctive-cpt,
947,,,FALSE,533.296,287,2000,,,,,1025420,,,87,conjunctive-cpt,jspsych-conjunctive-cpt,
948,#0000FF,,FALSE,533.402,,,,,,circle,1025526,,,87,conjunctive-cpt,jspsych-conjunctive-cpt,
949,,,FALSE,535.4070001,288,1000,,,,,1027531,,,87,conjunctive-cpt,jspsych-conjunctive-cpt,
950,#FFFF00,,FALSE,535.5109999,,,,,,circle,1027635,,,87,conjunctive-cpt,jspsych-conjunctive-cpt,
951,,,FALSE,536.517,289,1500,,,,,1028641,,,87,conjunctive-cpt,jspsych-conjunctive-cpt,
952,#00FF00,,FALSE,536.618,,,,,,triangle,1028742,,,87,conjunctive-cpt,jspsych-conjunctive-cpt,
953,,,FALSE,538.1240001,290,1000,,,,,1030248,,,87,conjunctive-cpt,jspsych-conjunctive-cpt,
954,#00FF00,,FALSE,538.227,,,,,,triangle,1030351,,,87,conjunctive-cpt,jspsych-conjunctive-cpt,
955,,,FALSE,539.233,291,1500,,,,,1031357,,,87,conjunctive-cpt,jspsych-conjunctive-cpt,
956,#FF0000,,FALSE,539.336,,,,,,circle,1031461,,,87,conjunctive-cpt,jspsych-conjunctive-cpt,
957,,,FALSE,540.8410001,292,2500,,,,,1032965,,,87,conjunctive-cpt,jspsych-conjunctive-cpt,
958,#FF0000,,FALSE,540.944,,,,,,square,1033068,,,87,conjunctive-cpt,jspsych-conjunctive-cpt,
959,#0000FF,FALSE,TRUE,599.154,,,32,,,circle,1033475,,,87,conjunctive-cpt,,
960,#FFFF00,TRUE,TRUE,541.3510001,,,32,,,triangle,1033475,,,87,conjunctive-cpt,,
961,,,FALSE,543.4490001,293,2500,,,,,1035573,,,87,conjunctive-cpt,jspsych-conjunctive-cpt,
962,#FF0000,,FALSE,543.553,,,,,,square,1035677,,,87,conjunctive-cpt,jspsych-conjunctive-cpt,
963,#0000FF,FALSE,TRUE,601.7779999,,,32,,,circle,1036099,,,87,conjunctive-cpt,,
964,#FFFF00,TRUE,TRUE,543.9749999,,,32,,,triangle,1036099,,,87,conjunctive-cpt,,
965,,,FALSE,546.066,294,2000,,,,,1038190,,,87,conjunctive-cpt,jspsych-conjunctive-cpt,
966,#FF0000,,FALSE,546.1700001,,,,,,circle,1038294,,,87,conjunctive-cpt,jspsych-conjunctive-cpt,
967,,,FALSE,548.181,295,2000,,,,,1040305,,,87,conjunctive-cpt,jspsych-conjunctive-cpt,
968,#FF0000,,FALSE,548.293,,,,,,triangle,1040417,,,87,conjunctive-cpt,jspsych-conjunctive-cpt,
969,,,FALSE,550.3010001,296,2500,,,,,1042425,,,87,conjunctive-cpt,jspsych-conjunctive-cpt,
970,#FFFF00,,FALSE,550.404,,,,,,triangle,1042528,,,87,conjunctive-cpt,jspsych-conjunctive-cpt,
971,,,FALSE,552.9160001,297,2500,,,,,1045040,,,87,conjunctive-cpt,jspsych-conjunctive-cpt,
972,#0000FF,,FALSE,553.02,,,,,,triangle,1045144,,,87,conjunctive-cpt,jspsych-conjunctive-cpt,
973,,,FALSE,555.526,298,2000,,,,,1047650,,,87,conjunctive-cpt,jspsych-conjunctive-cpt,
974,#FF0000,,FALSE,555.6289999,,,,,,circle,1047753,,,87,conjunctive-cpt,jspsych-conjunctive-cpt,
975,,,FALSE,557.641,299,1500,,,,,1049765,,,87,conjunctive-cpt,jspsych-conjunctive-cpt,
976,#FFFF00,,FALSE,557.7550001,,,,,,square,1049879,,,87,conjunctive-cpt,jspsych-conjunctive-cpt,
977,,,FALSE,559.2590001,300,2000,,,,,1051383,,,87,conjunctive-cpt,jspsych-conjunctive-cpt,
978,#FFFF00,,FALSE,559.3629999,,,,,,triangle,1051487,,,87,conjunctive-cpt,jspsych-conjunctive-cpt,
979,,,FALSE,561.369,301,1000,,,,,1053493,,,87,conjunctive-cpt,jspsych-conjunctive-cpt,
980,#FF0000,,FALSE,561.4720001,,,,,,square,1053596,,,87,conjunctive-cpt,jspsych-conjunctive-cpt,
981,#0000FF,FALSE,TRUE,619.6340001,,,32,,,circle,1053955,,,87,conjunctive-cpt,,
982,#FFFF00,TRUE,TRUE,561.8310001,,,32,,,triangle,1053955,,,87,conjunctive-cpt,,
983,,,FALSE,562.484,302,2000,,,,,1054608,,,87,conjunctive-cpt,jspsych-conjunctive-cpt,
984,#FF0000,,FALSE,562.5880001,,,,,,square,1054712,,,87,conjunctive-cpt,jspsych-conjunctive-cpt,
985,#0000FF,FALSE,TRUE,620.6730001,,,32,,,circle,1054994,,,87,conjunctive-cpt,,
986,#FFFF00,TRUE,TRUE,562.8710001,,,32,,,triangle,1054995,,,87,conjunctive-cpt,,
987,,,FALSE,564.5940001,303,2500,,,,,1056718,,,87,conjunctive-cpt,jspsych-conjunctive-cpt,
988,#00FF00,,FALSE,564.697,,,,,,square,1056821,,,87,conjunctive-cpt,jspsych-conjunctive-cpt,
989,,,FALSE,567.207,304,2000,,,,,1059331,,,87,conjunctive-cpt,jspsych-conjunctive-cpt,
990,#FF0000,,FALSE,567.3199999,,,,,,square,1059444,,,87,conjunctive-cpt,jspsych-conjunctive-cpt,
991,#0000FF,FALSE,TRUE,625.5699999,,,32,,,circle,1059891,,,87,conjunctive-cpt,,
992,#FFFF00,TRUE,TRUE,567.767,,,32,,,triangle,1059891,,,87,conjunctive-cpt,,
993,,,FALSE,569.3269999,305,1000,,,,,1061451,,,87,conjunctive-cpt,jspsych-conjunctive-cpt,
994,#00FF00,,FALSE,569.431,,,,,,triangle,1061555,,,87,conjunctive-cpt,jspsych-conjunctive-cpt,
995,,,FALSE,570.4360001,306,1000,,,,,1062560,,,87,conjunctive-cpt,jspsych-conjunctive-cpt,
996,#FF0000,,FALSE,570.5380001,,,,,,square,1062662,,,87,conjunctive-cpt,jspsych-conjunctive-cpt,
997,#0000FF,FALSE,TRUE,628.641,,,32,,,circle,1062962,,,87,conjunctive-cpt,,
998,#FFFF00,TRUE,TRUE,570.8380001,,,32,,,triangle,1062962,,,87,conjunctive-cpt,,
999,,,FALSE,571.5439999,307,2500,,,,,1063668,,,87,conjunctive-cpt,jspsych-conjunctive-cpt,
1000,#00FF00,,FALSE,571.648,,,,,,circle,1063772,,,87,conjunctive-cpt,jspsych-conjunctive-cpt,
1001,#0000FF,FALSE,TRUE,629.8900001,,,32,,,circle,1064211,,,87,conjunctive-cpt,,
1002,#FFFF00,FALSE,TRUE,572.0870001,,,32,,,triangle,1064211,,,87,conjunctive-cpt,,
1003,,,FALSE,574.1589999,308,2500,,,,,1066283,,,87,conjunctive-cpt,jspsych-conjunctive-cpt,
1004,#FFFF00,,FALSE,574.2650001,,,,,,circle,1066389,,,87,conjunctive-cpt,jspsych-conjunctive-cpt,
1005,,,FALSE,576.7750001,309,2000,,,,,1068899,,,87,conjunctive-cpt,jspsych-conjunctive-cpt,
1006,#FF0000,,FALSE,576.8870001,,,,,,square,1069011,,,87,conjunctive-cpt,jspsych-conjunctive-cpt,
1007,#0000FF,FALSE,TRUE,634.993,,,32,,,circle,1069315,,,87,conjunctive-cpt,,
1008,#FFFF00,TRUE,TRUE,577.191,,,32,,,triangle,1069315,,,87,conjunctive-cpt,,
1009,,,FALSE,578.895,310,2000,,,,,1071020,,,87,conjunctive-cpt,jspsych-conjunctive-cpt,
1010,#0000FF,,FALSE,578.9979999,,,,,,circle,1071122,,,87,conjunctive-cpt,jspsych-conjunctive-cpt,
1011,,,FALSE,581.0039999,311,1500,,,,,1073128,,,87,conjunctive-cpt,jspsych-conjunctive-cpt,
1012,#FFFF00,,FALSE,581.1059999,,,,,,circle,1073230,,,87,conjunctive-cpt,jspsych-conjunctive-cpt,
1013,,,FALSE,582.618,312,1000,,,,,1074742,,,87,conjunctive-cpt,jspsych-conjunctive-cpt,
1014,#0000FF,,FALSE,582.724,,,,,,circle,1074848,,,87,conjunctive-cpt,jspsych-conjunctive-cpt,
1015,,,FALSE,583.7279999,313,1500,,,,,1075852,,,87,conjunctive-cpt,jspsych-conjunctive-cpt,
1016,#0000FF,,FALSE,583.8310001,,,,,,square,1075955,,,87,conjunctive-cpt,jspsych-conjunctive-cpt,
1017,,,FALSE,585.3380001,314,1000,,,,,1077462,,,87,conjunctive-cpt,jspsych-conjunctive-cpt,
1018,#FFFF00,,FALSE,585.4400001,,,,,,circle,1077564,,,87,conjunctive-cpt,jspsych-conjunctive-cpt,
1019,,,FALSE,586.4460001,315,2000,,,,,1078570,,,87,conjunctive-cpt,jspsych-conjunctive-cpt,
1020,#FFFF00,,FALSE,586.5480001,,,,,,triangle,1078672,,,87,conjunctive-cpt,jspsych-conjunctive-cpt,
1021,,,FALSE,588.559,316,,,,,,1080683,,,87,conjunctive-cpt,jspsych-conjunctive-cpt,
1022,,,,,,,,,,,1080695,,,87,conjunctive-cpt,,
1023,,,,,,,,"{""Q0"":2}",5762,,1086459,,,88,survey-likert,,
1024,,,,,,,,"{""Q0"":""לא""}",3527,,1089987,,,89,survey-multi-choice,,
1025,#0000FF,FALSE,TRUE,662.993,,,32,,,circle,1097314,,,90,survey-text,,
1026,#FFFF00,FALSE,TRUE,605.1900001,,,32,,,triangle,1097314,,,90,survey-text,,
1027,#0000FF,FALSE,TRUE,665.6489999,,,32,,,circle,1099970,,,90,survey-text,,
1028,#FFFF00,FALSE,TRUE,607.846,,,32,,,triangle,1099970,,,90,survey-text,,
1029,#0000FF,FALSE,TRUE,682.6730001,,,32,,,circle,1116994,,,90,survey-text,,
1030,#FFFF00,FALSE,TRUE,624.8700001,,,32,,,triangle,1116994,,,90,survey-text,,
1031,#0000FF,FALSE,TRUE,683.2490001,,,32,,,circle,1117570,,,90,survey-text,,
1032,#FFFF00,FALSE,TRUE,625.4460001,,,32,,,triangle,1117570,,,90,survey-text,,
1033,#0000FF,FALSE,TRUE,688.3369999,,,32,,,circle,1122658,,,90,survey-text,,
1034,#FFFF00,FALSE,TRUE,630.5339999,,,32,,,triangle,1122658,,,90,survey-text,,
1035,#0000FF,FALSE,TRUE,689.0250001,,,32,,,circle,1123346,,,90,survey-text,,
1036,#FFFF00,FALSE,TRUE,631.2220001,,,32,,,triangle,1123346,,,90,survey-text,,
1037,#0000FF,FALSE,TRUE,690.1299999,,,32,,,circle,1124451,,,90,survey-text,,
1038,#FFFF00,FALSE,TRUE,632.3269999,,,32,,,triangle,1124451,,,90,survey-text,,
1039,#0000FF,FALSE,TRUE,690.7049999,,,32,,,circle,1125026,,,90,survey-text,,
1040,#FFFF00,FALSE,TRUE,632.902,,,32,,,triangle,1125026,,,90,survey-text,,
1041,,,,,,,,"{""Q0"":""ללחוץ כשראיתי ולנוע כדי לנסות לא להשתעמם""}",38959,,1128946,,,90,survey-text,,
1042,,,,,,,,"{""Q0"":4}",7511,,1136458,,,91,survey-likert,,
1043,,,,,,,,"{""Q0"":""לא""}",5448,,1141907,,,92,survey-multi-choice,,
1044,,,,,,,,"{""Q0"":""""}",775,,1142683,,,93,survey-text,,
1045,,,,,,,,"{""Q0"":2}",7678,,1150362,,,94,survey-likert,,
1046,,,,,,,,"{""Q0"":""0""}",5680,,1156043,,,95,survey-text,,
1047,,,,,,,,"{""Q0"":""0""}",4727,,1160770,,,96,survey-text,,
1048,,,,,,,,,2760,,1163530,,,97,instructions,,
1049,,,,,,,,"{""Q0"":""לא נכון"",""Q1"":""לא נכון"",""Q2"":""נכון""}",19613,,1183147,,,98,survey-multi-choice,,
1050,,,,,,,,"{""Q0"":""נכון"",""Q1"":""נכון"",""Q2"":""נכון""}",10870,,1194019,,,99,survey-multi-choice,,
1051,,,,,,,,"{""Q0"":""נכון"",""Q1"":""נכון"",""Q2"":""נכון""}",14213,,1208235,,,100,survey-multi-choice,,
1052,,,,,,,,"{""Q0"":""לא נכון"",""Q1"":""נכון"",""Q2"":""נכון""}",98308,,1306548,,,101,survey-multi-choice,,
0,,,,,,,,,53179,,53179,,,0,instructions,,
1,,,,,,,,"{""Q0"":""אישה"",""Q1"":""ימין"",""Q2"":""עברית""}",6269,,59451,,,1,survey-multi-choice,,
2,,,,,,,,"{""Q0"":""24""}",2991,,62442,,,2,survey-text,,
3,,,,,,,,"{""Q0"":""לא""}",2319,,64762,,,3,survey-multi-choice,,
4,,,,,,,,"{""Q0"":1}",10143,,74906,,,4,survey-likert,,
5,,,,,,,,,5359,,80266,,,5,instructions,,
6,,,,,,,,"{""Q0"":1,""Q1"":0,""Q2"":1}",18823,,99090,,,6,survey-likert,,
7,,,,,,,,"{""Q0"":2,""Q1"":2,""Q2"":0}",20503,,119594,,,7,survey-likert,,
8,,,,,,,,"{""Q0"":2,""Q1"":2,""Q2"":0}",27215,,146811,,,8,survey-likert,,
9,,,,,,,,"{""Q0"":3,""Q1"":1,""Q2"":0}",25391,,172202,,,9,survey-likert,,
10,,,,,,,,"{""Q0"":1,""Q1"":1,""Q2"":0}",12479,,184682,,,10,survey-likert,,
11,,,,,,,,"{""Q0"":2,""Q1"":2,""Q2"":2}",26432,,211114,,,11,survey-likert,,
12,,,,,,,,,13111,,224226,,,12,instructions,,
13,,,FALSE,0,0,1500,,,,,224332,,,13,conjunctive-cpt,jspsych-conjunctive-cpt,
14,#FF0000,,FALSE,0.113999844,,,,,,square,224446,,,13,conjunctive-cpt,jspsych-conjunctive-cpt,
15,,,FALSE,1.618999958,1,2000,,,,,225952,,,13,conjunctive-cpt,jspsych-conjunctive-cpt,
16,#00FF00,,,1.618999958,,,,,,triangle,225952,,,13,conjunctive-cpt,jspsych-conjunctive-cpt,TRUE
17,#00FF00,,FALSE,1.724999905,,,,,,triangle,226057,,,13,conjunctive-cpt,jspsych-conjunctive-cpt,
18,,,FALSE,3.736999989,2,2000,,,,,228069,,,13,conjunctive-cpt,jspsych-conjunctive-cpt,
19,#00FF00,,FALSE,3.842000008,,,,,,triangle,228174,,,13,conjunctive-cpt,jspsych-conjunctive-cpt,
20,,,FALSE,5.847999811,3,1000,,,,,230180,,,13,conjunctive-cpt,jspsych-conjunctive-cpt,
21,#0000FF,,FALSE,5.949999809,,,,,,circle,230283,,,13,conjunctive-cpt,jspsych-conjunctive-cpt,
22,,,FALSE,6.955999851,4,2500,,,,,231288,,,13,conjunctive-cpt,jspsych-conjunctive-cpt,
23,#FFFF00,,FALSE,7.059000015,,,,,,square,231391,,,13,conjunctive-cpt,jspsych-conjunctive-cpt,
24,,,FALSE,9.570999861,5,1500,,,,,233903,,,13,conjunctive-cpt,jspsych-conjunctive-cpt,
25,#FF0000,,FALSE,9.682999849,,,,,,square,234015,,,13,conjunctive-cpt,jspsych-conjunctive-cpt,
26,#FF0000,TRUE,TRUE,9.902999878,,,32,,,circle,234235,,,13,conjunctive-cpt,,
27,,,FALSE,11.19199991,6,1500,,,,,235525,,,13,conjunctive-cpt,jspsych-conjunctive-cpt,
28,#0000FF,,FALSE,11.30699992,,,,,,square,235639,,,13,conjunctive-cpt,jspsych-conjunctive-cpt,
29,,,FALSE,12.81599998,7,1500,,,,,237148,,,13,conjunctive-cpt,jspsych-conjunctive-cpt,
30,#00FF00,,FALSE,12.91899991,,,,,,square,237251,,,13,conjunctive-cpt,jspsych-conjunctive-cpt,
31,,,FALSE,14.42999983,8,1000,,,,,238762,,,13,conjunctive-cpt,jspsych-conjunctive-cpt,
32,#FF0000,,FALSE,14.53399992,,,,,,triangle,238867,,,13,conjunctive-cpt,jspsych-conjunctive-cpt,
33,,,FALSE,15.54099989,9,2500,,,,,239873,,,13,conjunctive-cpt,jspsych-conjunctive-cpt,
34,#FF0000,,FALSE,15.64299989,,,,,,square,239975,,,13,conjunctive-cpt,jspsych-conjunctive-cpt,
35,#FF0000,TRUE,TRUE,15.88599992,,,32,,,circle,240218,,,13,conjunctive-cpt,,
36,,,FALSE,18.14899993,10,2500,,,,,242481,,,13,conjunctive-cpt,jspsych-conjunctive-cpt,
37,#FF0000,,FALSE,18.25199986,,,,,,triangle,242584,,,13,conjunctive-cpt,jspsych-conjunctive-cpt,
38,,,FALSE,20.76399994,11,2000,,,,,245096,,,13,conjunctive-cpt,jspsych-conjunctive-cpt,
39,#0000FF,,FALSE,20.86999989,,,,,,square,245202,,,13,conjunctive-cpt,jspsych-conjunctive-cpt,
40,,,FALSE,22.875,12,1000,,,,,247207,,,13,conjunctive-cpt,jspsych-conjunctive-cpt,
41,#FFFF00,,FALSE,22.977,,,,,,square,247309,,,13,conjunctive-cpt,jspsych-conjunctive-cpt,
42,,,FALSE,23.98899984,13,2000,,,,,248321,,,13,conjunctive-cpt,jspsych-conjunctive-cpt,
43,#FF0000,,FALSE,24.10299993,,,,,,square,248435,,,13,conjunctive-cpt,jspsych-conjunctive-cpt,
44,#FF0000,TRUE,TRUE,24.398,,,32,,,circle,248730,,,13,conjunctive-cpt,,
45,,,FALSE,26.11799979,14,1500,,,,,250450,,,13,conjunctive-cpt,jspsych-conjunctive-cpt,
46,#FFFF00,,FALSE,26.21899986,,,,,,triangle,250551,,,13,conjunctive-cpt,jspsych-conjunctive-cpt,
47,,,FALSE,27.7249999,15,1000,,,,,252057,,,13,conjunctive-cpt,jspsych-conjunctive-cpt,
48,#0000FF,,FALSE,27.8269999,,,,,,triangle,252159,,,13,conjunctive-cpt,jspsych-conjunctive-cpt,
49,,,FALSE,28.83999991,16,2500,,,,,253172,,,13,conjunctive-cpt,jspsych-conjunctive-cpt,
50,#0000FF,,FALSE,28.94400001,,,,,,triangle,253276,,,13,conjunctive-cpt,jspsych-conjunctive-cpt,
51,,,FALSE,31.44899988,17,1000,,,,,255781,,,13,conjunctive-cpt,jspsych-conjunctive-cpt,
52,#FFFF00,,FALSE,31.5539999,,,,,,circle,255886,,,13,conjunctive-cpt,jspsych-conjunctive-cpt,
53,,,FALSE,32.55900002,18,1000,,,,,256891,,,13,conjunctive-cpt,jspsych-conjunctive-cpt,
54,#FF0000,,FALSE,32.66199994,,,,,,square,256994,,,13,conjunctive-cpt,jspsych-conjunctive-cpt,
55,#FF0000,TRUE,TRUE,32.92599988,,,32,,,circle,257258,,,13,conjunctive-cpt,,
56,,,FALSE,33.66499996,19,2500,,,,,257997,,,13,conjunctive-cpt,jspsych-conjunctive-cpt,
57,#00FF00,,FALSE,33.77099991,,,,,,circle,258103,,,13,conjunctive-cpt,jspsych-conjunctive-cpt,
58,,,FALSE,36.27600002,20,2000,,,,,260608,,,13,conjunctive-cpt,jspsych-conjunctive-cpt,
59,#0000FF,,FALSE,36.37899995,,,,,,circle,260711,,,13,conjunctive-cpt,jspsych-conjunctive-cpt,
60,,,FALSE,38.38399982,21,1500,,,,,262716,,,13,conjunctive-cpt,jspsych-conjunctive-cpt,
61,#FF0000,,FALSE,38.48699999,,,,,,square,262819,,,13,conjunctive-cpt,jspsych-conjunctive-cpt,
62,#FF0000,TRUE,TRUE,38.76599979,,,32,,,circle,263098,,,13,conjunctive-cpt,,
63,,,FALSE,40.00199986,22,1500,,,,,264334,,,13,conjunctive-cpt,jspsych-conjunctive-cpt,
64,#FF0000,,FALSE,40.10500002,,,,,,circle,264437,,,13,conjunctive-cpt,jspsych-conjunctive-cpt,
65,,,FALSE,41.6099999,23,1000,,,,,265942,,,13,conjunctive-cpt,jspsych-conjunctive-cpt,
66,#FFFF00,,FALSE,41.71199989,,,,,,triangle,266044,,,13,conjunctive-cpt,jspsych-conjunctive-cpt,
67,,,FALSE,42.71799994,24,2500,,,,,267050,,,13,conjunctive-cpt,jspsych-conjunctive-cpt,
68,#FF0000,,FALSE,42.82099986,,,,,,square,267153,,,13,conjunctive-cpt,jspsych-conjunctive-cpt,
69,#FF0000,TRUE,TRUE,43.13399982,,,32,,,circle,267466,,,13,conjunctive-cpt,,
70,,,FALSE,45.3269999,25,2500,,,,,269659,,,13,conjunctive-cpt,jspsych-conjunctive-cpt,
71,#FF0000,,FALSE,45.42999983,,,,,,triangle,269762,,,13,conjunctive-cpt,jspsych-conjunctive-cpt,
72,,,FALSE,47.93499994,26,2000,,,,,272267,,,13,conjunctive-cpt,jspsych-conjunctive-cpt,
73,#FF0000,,FALSE,48.03799987,,,,,,square,272370,,,13,conjunctive-cpt,jspsych-conjunctive-cpt,
74,#FF0000,TRUE,TRUE,48.36599994,,,32,,,circle,272698,,,13,conjunctive-cpt,,
75,,,FALSE,50.04499984,27,2000,,,,,274377,,,13,conjunctive-cpt,jspsych-conjunctive-cpt,
76,#0000FF,,FALSE,50.16100001,,,,,,triangle,274493,,,13,conjunctive-cpt,jspsych-conjunctive-cpt,
77,,,FALSE,52.16799998,28,2500,,,,,276501,,,13,conjunctive-cpt,jspsych-conjunctive-cpt,
78,#FF0000,,FALSE,52.27199984,,,,,,square,276604,,,13,conjunctive-cpt,jspsych-conjunctive-cpt,
79,#FF0000,TRUE,TRUE,52.54199982,,,32,,,circle,276875,,,13,conjunctive-cpt,,
80,,,FALSE,54.78399992,29,,,,,,279116,,,13,conjunctive-cpt,jspsych-conjunctive-cpt,
81,#FF0000,,FALSE,54.88899994,,,,,,circle,279221,,,13,conjunctive-cpt,jspsych-conjunctive-cpt,
82,,,FALSE,54.89399981,30,,,,,,279226,,,13,conjunctive-cpt,jspsych-conjunctive-cpt,
83,,,,,,,,,,,279237,,,13,conjunctive-cpt,,
84,,,,,,,,,6597,,285834,,,14,instructions,,
85,,,FALSE,0.000999928,0,2000,,,,,285953,,,15,conjunctive-cpt,jspsych-conjunctive-cpt,
86,#FF0000,,FALSE,0.101999998,,,,,,square,286054,,,15,conjunctive-cpt,jspsych-conjunctive-cpt,
87,#FF0000,FALSE,TRUE,61.96599984,,,32,,,circle,286298,,,15,conjunctive-cpt,,
88,#FFFF00,TRUE,TRUE,0.345999956,,,32,,,square,286298,,,15,conjunctive-cpt,,
89,,,FALSE,2.111999989,1,2000,,,,,288064,,,15,conjunctive-cpt,jspsych-conjunctive-cpt,
90,#FF0000,,FALSE,2.226000071,,,,,,square,288178,,,15,conjunctive-cpt,jspsych-conjunctive-cpt,
91,#FF0000,FALSE,TRUE,64.02999997,,,32,,,circle,288362,,,15,conjunctive-cpt,,
92,#FFFF00,TRUE,TRUE,2.410000086,,,32,,,square,288362,,,15,conjunctive-cpt,,
93,,,FALSE,4.233999968,2,2000,,,,,290186,,,15,conjunctive-cpt,jspsych-conjunctive-cpt,
94,#FF0000,,FALSE,4.335999966,,,,,,square,290288,,,15,conjunctive-cpt,jspsych-conjunctive-cpt,
95,#FF0000,FALSE,TRUE,66.22199988,,,32,,,circle,290554,,,15,conjunctive-cpt,,
96,#FFFF00,TRUE,TRUE,4.601999998,,,32,,,square,290554,,,15,conjunctive-cpt,,
97,,,FALSE,6.342000008,3,1000,,,,,292294,,,15,conjunctive-cpt,jspsych-conjunctive-cpt,
98,#0000FF,,FALSE,6.444999933,,,,,,square,292397,,,15,conjunctive-cpt,jspsych-conjunctive-cpt,
99,,,FALSE,7.457000017,4,2500,,,,,293409,,,15,conjunctive-cpt,jspsych-conjunctive-cpt,
100,#FF0000,,FALSE,7.561000109,,,,,,circle,293513,,,15,conjunctive-cpt,jspsych-conjunctive-cpt,
101,,,FALSE,10.06800008,5,1000,,,,,296020,,,15,conjunctive-cpt,jspsych-conjunctive-cpt,
102,#0000FF,,FALSE,10.16899991,,,,,,triangle,296121,,,15,conjunctive-cpt,jspsych-conjunctive-cpt,
103,,,FALSE,11.18199992,6,2000,,,,,297134,,,15,conjunctive-cpt,jspsych-conjunctive-cpt,
104,#FFFF00,,FALSE,11.28800011,,,,,,triangle,297240,,,15,conjunctive-cpt,jspsych-conjunctive-cpt,
105,,,FALSE,13.2980001,7,1000,,,,,299250,,,15,conjunctive-cpt,jspsych-conjunctive-cpt,
106,#0000FF,,FALSE,13.40499997,,,,,,circle,299357,,,15,conjunctive-cpt,jspsych-conjunctive-cpt,
107,,,FALSE,14.40899992,8,1500,,,,,300361,,,15,conjunctive-cpt,jspsych-conjunctive-cpt,
108,#FF0000,,FALSE,14.51200008,,,,,,square,300464,,,15,conjunctive-cpt,jspsych-conjunctive-cpt,
109,#FF0000,FALSE,TRUE,76.36599994,,,32,,,circle,300698,,,15,conjunctive-cpt,,
110,#FFFF00,TRUE,TRUE,14.74600005,,,32,,,square,300698,,,15,conjunctive-cpt,,
111,,,FALSE,16.01900005,9,1500,,,,,301971,,,15,conjunctive-cpt,jspsych-conjunctive-cpt,
112,#FF0000,,FALSE,16.12100005,,,,,,triangle,302073,,,15,conjunctive-cpt,jspsych-conjunctive-cpt,
113,,,FALSE,17.63199997,10,2500,,,,,303584,,,15,conjunctive-cpt,jspsych-conjunctive-cpt,
114,#0000FF,,FALSE,17.74500012,,,,,,circle,303697,,,15,conjunctive-cpt,jspsych-conjunctive-cpt,
115,,,FALSE,20.25200009,11,1000,,,,,306204,,,15,conjunctive-cpt,jspsych-conjunctive-cpt,
116,#FF0000,,FALSE,20.35500002,,,,,,square,306307,,,15,conjunctive-cpt,jspsych-conjunctive-cpt,
117,#FF0000,FALSE,TRUE,82.17399979,,,32,,,circle,306506,,,15,conjunctive-cpt,,
118,#FFFF00,TRUE,TRUE,20.5539999,,,32,,,square,306506,,,15,conjunctive-cpt,,
119,,,FALSE,21.36000013,12,2000,,,,,307312,,,15,conjunctive-cpt,jspsych-conjunctive-cpt,
120,#FF0000,,FALSE,21.46300006,,,,,,square,307415,,,15,conjunctive-cpt,jspsych-conjunctive-cpt,
121,#FF0000,FALSE,TRUE,83.42199993,,,32,,,circle,307754,,,15,conjunctive-cpt,,
122,#FFFF00,TRUE,TRUE,21.80200005,,,32,,,square,307754,,,15,conjunctive-cpt,,
123,,,FALSE,23.4749999,13,1500,,,,,309427,,,15,conjunctive-cpt,jspsych-conjunctive-cpt,
124,#00FF00,,FALSE,23.579,,,,,,triangle,309531,,,15,conjunctive-cpt,jspsych-conjunctive-cpt,
125,,,FALSE,25.08599997,14,1500,,,,,311038,,,15,conjunctive-cpt,jspsych-conjunctive-cpt,
